time,.header.seq,.header.stamp.secs,.header.stamp.nsecs,.header.frame_id,.orientation.x,.orientation.y,.orientation.z,.orientation.w,.orientation_covariance,.angular_velocity.x,.angular_velocity.y,.angular_velocity.z,.angular_velocity_covariance,.linear_acceleration.x,.linear_acceleration.y,.linear_acceleration.z,.linear_acceleration_covariance
2024/07/05/10:37:54.208390,6782,1720190274,187652879,imu_link,-0.005249149166047573,0.012075074948370457,-0.6532393097877502,-0.7570369839668274,"(0.05, 0.0, 0.0, 0.0, 0.05, 0.0, 0.0, 0.0, 0.05)",-0.001064225216396153,-0.003192675532773137,-0.001064225216396153,"(0.1, 0.0, 0.0, 0.0, 0.1, 0.0, 0.0, 0.0, 0.1)",0.08140286058187485,-0.05267243832349777,9.509769439697266,"(0.5, 0.0, 0.0, 0.0, 0.5, 0.0, 0.0, 0.0, 0.5)"
2024/07/05/10:37:54.304989,6783,1720190274,290652879,imu_link,-0.005180154927074909,0.01208894606679678,-0.6532425284385681,-0.7570344805717468,"(0.05, 0.0, 0.0, 0.0, 0.05, 0.0, 0.0, 0.0, 0.05)",-0.001064225216396153,-0.003192675532773137,0.0,"(0.1, 0.0, 0.0, 0.0, 0.1, 0.0, 0.0, 0.0, 0.1)",0.3256114423274994,-0.07661445438861847,9.557653427124023,"(0.5, 0.0, 0.0, 0.0, 0.5, 0.0, 0.0, 0.0, 0.5)"
2024/07/05/10:37:54.382014,6784,1720190274,373652879,imu_link,-0.005227997899055481,0.012121385894715786,-0.6532426476478577,-0.7570335268974304,"(0.05, 0.0, 0.0, 0.0, 0.05, 0.0, 0.0, 0.0, 0.05)",0.0,0.0,-0.001064225216396153,"(0.1, 0.0, 0.0, 0.0, 0.1, 0.0, 0.0, 0.0, 0.1)",0.20111294090747833,-0.07182604819536209,9.624691009521484,"(0.5, 0.0, 0.0, 0.0, 0.5, 0.0, 0.0, 0.0, 0.5)"
2024/07/05/10:37:54.484743,6785,1720190274,476652879,imu_link,-0.005177222192287445,0.012124800123274326,-0.6532093286514282,-0.757062554359436,"(0.05, 0.0, 0.0, 0.0, 0.05, 0.0, 0.0, 0.0, 0.05)",-0.001064225216396153,-0.002128450432792306,0.0,"(0.1, 0.0, 0.0, 0.0, 0.1, 0.0, 0.0, 0.0, 0.1)",0.15322890877723694,-0.038307227194309235,9.653421401977539,"(0.5, 0.0, 0.0, 0.0, 0.5, 0.0, 0.0, 0.0, 0.5)"
2024/07/05/10:37:54.587532,6786,1720190274,579652879,imu_link,-0.00522320531308651,0.01209739688783884,-0.6531915068626404,-0.7570780515670776,"(0.05, 0.0, 0.0, 0.0, 0.05, 0.0, 0.0, 0.0, 0.05)",-0.001064225216396153,-0.002128450432792306,-0.001064225216396153,"(0.1, 0.0, 0.0, 0.0, 0.1, 0.0, 0.0, 0.0, 0.1)",0.272938996553421,-0.014365210197865963,9.624691009521484,"(0.5, 0.0, 0.0, 0.0, 0.5, 0.0, 0.0, 0.0, 0.5)"
2024/07/05/10:37:54.693405,6787,1720190274,682652879,imu_link,-0.005208060145378113,0.012098170816898346,-0.6531942486763,-0.7570757865905762,"(0.05, 0.0, 0.0, 0.0, 0.05, 0.0, 0.0, 0.0, 0.05)",-0.002128450432792306,-0.001064225216396153,0.0,"(0.1, 0.0, 0.0, 0.0, 0.1, 0.0, 0.0, 0.0, 0.1)",0.2968810200691223,-0.07182604819536209,9.59596061706543,"(0.5, 0.0, 0.0, 0.0, 0.5, 0.0, 0.0, 0.0, 0.5)"
2024/07/05/10:37:54.798620,6788,1720190274,785652879,imu_link,-0.005218592472374439,0.012142130173742771,-0.6532124280929565,-0.7570593357086182,"(0.05, 0.0, 0.0, 0.0, 0.05, 0.0, 0.0, 0.0, 0.05)",-0.001064225216396153,-0.002128450432792306,0.001064225216396153,"(0.1, 0.0, 0.0, 0.0, 0.1, 0.0, 0.0, 0.0, 0.1)",0.3256114423274994,-0.033518824726343155,9.677363395690918,"(0.5, 0.0, 0.0, 0.0, 0.5, 0.0, 0.0, 0.0, 0.5)"
2024/07/05/10:37:54.896251,6789,1720190274,888724042,imu_link,-0.005284431390464306,0.012157994322478771,-0.6532226800918579,-0.7570497989654541,"(0.05, 0.0, 0.0, 0.0, 0.05, 0.0, 0.0, 0.0, 0.05)",-0.001064225216396153,-0.001064225216396153,0.001064225216396153,"(0.1, 0.0, 0.0, 0.0, 0.1, 0.0, 0.0, 0.0, 0.1)",0.35434186458587646,-0.19153612852096558,9.404424667358398,"(0.5, 0.0, 0.0, 0.0, 0.5, 0.0, 0.0, 0.0, 0.5)"
2024/07/05/10:37:54.999767,6790,1720190274,991724042,imu_link,-0.0053291842341423035,0.012173633091151714,-0.6532430052757263,-0.7570316791534424,"(0.05, 0.0, 0.0, 0.0, 0.05, 0.0, 0.0, 0.0, 0.05)",0.0,0.0,0.0,"(0.1, 0.0, 0.0, 0.0, 0.1, 0.0, 0.0, 0.0, 0.1)",0.26336219906806946,-0.10055647045373917,9.730035781860352,"(0.5, 0.0, 0.0, 0.0, 0.5, 0.0, 0.0, 0.0, 0.5)"
2024/07/05/10:37:55.082808,6791,1720190275,74724042,imu_link,-0.0053298091515898705,0.012200172990560532,-0.6532256007194519,-0.7570462822914124,"(0.05, 0.0, 0.0, 0.0, 0.05, 0.0, 0.0, 0.0, 0.05)",0.0,0.0,-0.001064225216396153,"(0.1, 0.0, 0.0, 0.0, 0.1, 0.0, 0.0, 0.0, 0.1)",0.24899697303771973,-0.05267243832349777,9.490615844726562,"(0.5, 0.0, 0.0, 0.0, 0.5, 0.0, 0.0, 0.0, 0.5)"
2024/07/05/10:37:55.191641,6792,1720190275,177724042,imu_link,-0.005357004702091217,0.012172194197773933,-0.6532363891601562,-0.7570372223854065,"(0.05, 0.0, 0.0, 0.0, 0.05, 0.0, 0.0, 0.0, 0.05)",-0.001064225216396153,-0.002128450432792306,0.001064225216396153,"(0.1, 0.0, 0.0, 0.0, 0.1, 0.0, 0.0, 0.0, 0.1)",0.19153612852096558,-0.11013327538967133,9.749189376831055,"(0.5, 0.0, 0.0, 0.0, 0.5, 0.0, 0.0, 0.0, 0.5)"
2024/07/05/10:37:55.288332,6793,1720190275,280724042,imu_link,-0.005377084948122501,0.012148020789027214,-0.6532410979270935,-0.7570334076881409,"(0.05, 0.0, 0.0, 0.0, 0.05, 0.0, 0.0, 0.0, 0.05)",-0.001064225216396153,-0.002128450432792306,0.001064225216396153,"(0.1, 0.0, 0.0, 0.0, 0.1, 0.0, 0.0, 0.0, 0.1)",0.2968810200691223,-0.023942016065120697,9.648633003234863,"(0.5, 0.0, 0.0, 0.0, 0.5, 0.0, 0.0, 0.0, 0.5)"
2024/07/05/10:37:55.391490,6794,1720190275,383724042,imu_link,-0.005457039922475815,0.012239075265824795,-0.6532383561134338,-0.7570337057113647,"(0.05, 0.0, 0.0, 0.0, 0.05, 0.0, 0.0, 0.0, 0.05)",-0.001064225216396153,-0.003192675532773137,-0.001064225216396153,"(0.1, 0.0, 0.0, 0.0, 0.1, 0.0, 0.0, 0.0, 0.1)",0.31603461503982544,-0.15322890877723694,9.586383819580078,"(0.5, 0.0, 0.0, 0.0, 0.5, 0.0, 0.0, 0.0, 0.5)"
2024/07/05/10:37:55.494761,6795,1720190275,486724042,imu_link,-0.005477794446051121,0.01226743683218956,-0.6532286405563354,-0.7570415139198303,"(0.05, 0.0, 0.0, 0.0, 0.05, 0.0, 0.0, 0.0, 0.05)",-0.001064225216396153,-0.001064225216396153,0.0,"(0.1, 0.0, 0.0, 0.0, 0.1, 0.0, 0.0, 0.0, 0.1)",0.1628057211637497,-0.12928688526153564,9.643844604492188,"(0.5, 0.0, 0.0, 0.0, 0.5, 0.0, 0.0, 0.0, 0.5)"
2024/07/05/10:37:55.597958,6796,1720190275,589724042,imu_link,-0.005416448228061199,0.012295321561396122,-0.6532318592071533,-0.7570387125015259,"(0.05, 0.0, 0.0, 0.0, 0.05, 0.0, 0.0, 0.0, 0.05)",0.0,0.0,0.0,"(0.1, 0.0, 0.0, 0.0, 0.1, 0.0, 0.0, 0.0, 0.1)",0.24420857429504395,-0.11013327538967133,9.62947940826416,"(0.5, 0.0, 0.0, 0.0, 0.5, 0.0, 0.0, 0.0, 0.5)"
2024/07/05/10:37:55.687813,6797,1720190275,672724042,imu_link,-0.005415661260485649,0.012226427905261517,-0.6532280445098877,-0.757043182849884,"(0.05, 0.0, 0.0, 0.0, 0.05, 0.0, 0.0, 0.0, 0.05)",-0.001064225216396153,-0.001064225216396153,-0.001064225216396153,"(0.1, 0.0, 0.0, 0.0, 0.1, 0.0, 0.0, 0.0, 0.1)",0.22505496442317963,-0.1388636976480484,9.658209800720215,"(0.5, 0.0, 0.0, 0.0, 0.5, 0.0, 0.0, 0.0, 0.5)"
2024/07/05/10:37:55.784231,6798,1720190275,775724042,imu_link,-0.005367841571569443,0.012194941751658916,-0.6532332897186279,-0.757039487361908,"(0.05, 0.0, 0.0, 0.0, 0.05, 0.0, 0.0, 0.0, 0.05)",-0.002128450432792306,-0.001064225216396153,0.0,"(0.1, 0.0, 0.0, 0.0, 0.1, 0.0, 0.0, 0.0, 0.1)",0.2968810200691223,-0.10055647045373917,9.600749015808105,"(0.5, 0.0, 0.0, 0.0, 0.5, 0.0, 0.0, 0.0, 0.5)"
2024/07/05/10:37:55.886393,6799,1720190275,878724042,imu_link,-0.005409575067460537,0.012192763388156891,-0.6532329320907593,-0.757039487361908,"(0.05, 0.0, 0.0, 0.0, 0.05, 0.0, 0.0, 0.0, 0.05)",-0.001064225216396153,-0.001064225216396153,0.0,"(0.1, 0.0, 0.0, 0.0, 0.1, 0.0, 0.0, 0.0, 0.1)",0.21547815203666687,-0.028730420395731926,9.720458984375,"(0.5, 0.0, 0.0, 0.0, 0.5, 0.0, 0.0, 0.0, 0.5)"
2024/07/05/10:37:55.989707,6800,1720190275,981724042,imu_link,-0.005442763678729534,0.012111560441553593,-0.653231680393219,-0.7570416927337646,"(0.05, 0.0, 0.0, 0.0, 0.05, 0.0, 0.0, 0.0, 0.05)",-0.002128450432792306,-0.002128450432792306,-0.001064225216396153,"(0.1, 0.0, 0.0, 0.0, 0.1, 0.0, 0.0, 0.0, 0.1)",0.24420857429504395,-0.05746084079146385,9.533711433410645,"(0.5, 0.0, 0.0, 0.0, 0.5, 0.0, 0.0, 0.0, 0.5)"
2024/07/05/10:37:56.092523,6801,1720190276,84724042,imu_link,-0.00541450921446085,0.01204357948154211,-0.6532205939292908,-0.757052481174469,"(0.05, 0.0, 0.0, 0.0, 0.05, 0.0, 0.0, 0.0, 0.05)",-0.001064225216396153,-0.001064225216396153,-0.002128450432792306,"(0.1, 0.0, 0.0, 0.0, 0.1, 0.0, 0.0, 0.0, 0.1)",0.1388636976480484,-0.09576806426048279,9.567230224609375,"(0.5, 0.0, 0.0, 0.0, 0.5, 0.0, 0.0, 0.0, 0.5)"
2024/07/05/10:37:56.195316,6802,1720190276,187724042,imu_link,-0.00537815410643816,0.012059730477631092,-0.6532273888587952,-0.757046639919281,"(0.05, 0.0, 0.0, 0.0, 0.05, 0.0, 0.0, 0.0, 0.05)",0.0,0.0,0.0,"(0.1, 0.0, 0.0, 0.0, 0.1, 0.0, 0.0, 0.0, 0.1)",0.2106897532939911,-0.05267243832349777,9.50498104095459,"(0.5, 0.0, 0.0, 0.0, 0.5, 0.0, 0.0, 0.0, 0.5)"
2024/07/05/10:37:56.298641,6803,1720190276,290724042,imu_link,-0.005391601473093033,0.012050200253725052,-0.6532356142997742,-0.7570396065711975,"(0.05, 0.0, 0.0, 0.0, 0.05, 0.0, 0.0, 0.0, 0.05)",-0.002128450432792306,-0.003192675532773137,0.001064225216396153,"(0.1, 0.0, 0.0, 0.0, 0.1, 0.0, 0.0, 0.0, 0.1)",0.26336219906806946,-0.08619125932455063,9.524134635925293,"(0.5, 0.0, 0.0, 0.0, 0.5, 0.0, 0.0, 0.0, 0.5)"
2024/07/05/10:37:56.383691,6804,1720190276,373724042,imu_link,-0.005312549881637096,0.012108899652957916,-0.6532471179962158,-0.7570292949676514,"(0.05, 0.0, 0.0, 0.0, 0.05, 0.0, 0.0, 0.0, 0.05)",-0.001064225216396153,-0.001064225216396153,0.0,"(0.1, 0.0, 0.0, 0.0, 0.1, 0.0, 0.0, 0.0, 0.1)",0.2585737705230713,-0.05746084079146385,9.519346237182617,"(0.5, 0.0, 0.0, 0.0, 0.5, 0.0, 0.0, 0.0, 0.5)"
2024/07/05/10:37:56.487004,6805,1720190276,476724042,imu_link,-0.005292114801704884,0.012126633897423744,-0.6532524824142456,-0.7570245265960693,"(0.05, 0.0, 0.0, 0.0, 0.05, 0.0, 0.0, 0.0, 0.05)",0.001064225216396153,-0.001064225216396153,0.001064225216396153,"(0.1, 0.0, 0.0, 0.0, 0.1, 0.0, 0.0, 0.0, 0.1)",0.31124621629714966,-0.10055647045373917,9.466673851013184,"(0.5, 0.0, 0.0, 0.0, 0.5, 0.0, 0.0, 0.0, 0.5)"
2024/07/05/10:37:56.591004,6806,1720190276,579724042,imu_link,-0.005302167497575283,0.012182197533547878,-0.6532546877861023,-0.7570216655731201,"(0.05, 0.0, 0.0, 0.0, 0.05, 0.0, 0.0, 0.0, 0.05)",-0.002128450432792306,-0.001064225216396153,0.0,"(0.1, 0.0, 0.0, 0.0, 0.1, 0.0, 0.0, 0.0, 0.1)",0.26815059781074524,-0.07661445438861847,9.57201862335205,"(0.5, 0.0, 0.0, 0.0, 0.5, 0.0, 0.0, 0.0, 0.5)"
2024/07/05/10:37:56.692442,6807,1720190276,682724042,imu_link,-0.005325780250132084,0.012156338430941105,-0.6532450318336487,-0.7570302486419678,"(0.05, 0.0, 0.0, 0.0, 0.05, 0.0, 0.0, 0.0, 0.05)",0.0,0.0,-0.001064225216396153,"(0.1, 0.0, 0.0, 0.0, 0.1, 0.0, 0.0, 0.0, 0.1)",0.181959331035614,-0.047884032130241394,9.59596061706543,"(0.5, 0.0, 0.0, 0.0, 0.5, 0.0, 0.0, 0.0, 0.5)"
2024/07/05/10:37:56.796172,6808,1720190276,785724042,imu_link,-0.005307190120220184,0.012164999730885029,-0.653248131275177,-0.7570275664329529,"(0.05, 0.0, 0.0, 0.0, 0.05, 0.0, 0.0, 0.0, 0.05)",-0.001064225216396153,-0.001064225216396153,0.0,"(0.1, 0.0, 0.0, 0.0, 0.1, 0.0, 0.0, 0.0, 0.1)",0.3064578175544739,-0.043095629662275314,9.591172218322754,"(0.5, 0.0, 0.0, 0.0, 0.5, 0.0, 0.0, 0.0, 0.5)"
2024/07/05/10:37:56.901381,6809,1720190276,888724042,imu_link,-0.005333868786692619,0.012182226404547691,-0.6532425284385681,-0.7570319175720215,"(0.05, 0.0, 0.0, 0.0, 0.05, 0.0, 0.0, 0.0, 0.05)",0.001064225216396153,0.0,-0.001064225216396153,"(0.1, 0.0, 0.0, 0.0, 0.1, 0.0, 0.0, 0.0, 0.1)",0.2106897532939911,-0.047884032130241394,9.485827445983887,"(0.5, 0.0, 0.0, 0.0, 0.5, 0.0, 0.0, 0.0, 0.5)"
2024/07/05/10:37:56.979604,6810,1720190276,971724042,imu_link,-0.005361272022128105,0.012201068922877312,-0.6532391309738159,-0.7570343613624573,"(0.05, 0.0, 0.0, 0.0, 0.05, 0.0, 0.0, 0.0, 0.05)",-0.001064225216396153,-0.001064225216396153,0.0,"(0.1, 0.0, 0.0, 0.0, 0.1, 0.0, 0.0, 0.0, 0.1)",0.24899697303771973,-0.004788403399288654,9.62947940826416,"(0.5, 0.0, 0.0, 0.0, 0.5, 0.0, 0.0, 0.0, 0.5)"
2024/07/05/10:37:57.083280,6811,1720190277,74724042,imu_link,-0.005400529131293297,0.012179039418697357,-0.6532440185546875,-0.757030189037323,"(0.05, 0.0, 0.0, 0.0, 0.05, 0.0, 0.0, 0.0, 0.05)",-0.001064225216396153,-0.002128450432792306,0.001064225216396153,"(0.1, 0.0, 0.0, 0.0, 0.1, 0.0, 0.0, 0.0, 0.1)",0.24899697303771973,-0.08619125932455063,9.466673851013184,"(0.5, 0.0, 0.0, 0.0, 0.5, 0.0, 0.0, 0.0, 0.5)"
2024/07/05/10:37:57.186053,6812,1720190277,177724042,imu_link,-0.005378494970500469,0.01214747503399849,-0.6532493233680725,-0.7570263147354126,"(0.05, 0.0, 0.0, 0.0, 0.05, 0.0, 0.0, 0.0, 0.05)",-0.001064225216396153,-0.003192675532773137,0.0,"(0.1, 0.0, 0.0, 0.0, 0.1, 0.0, 0.0, 0.0, 0.1)",0.23942017555236816,0.004788403399288654,9.634267807006836,"(0.5, 0.0, 0.0, 0.0, 0.5, 0.0, 0.0, 0.0, 0.5)"
2024/07/05/10:37:57.289263,6813,1720190277,280724042,imu_link,-0.005384422838687897,0.012106292881071568,-0.6532521843910217,-0.7570244669914246,"(0.05, 0.0, 0.0, 0.0, 0.05, 0.0, 0.0, 0.0, 0.05)",-0.001064225216396153,-0.001064225216396153,-0.002128450432792306,"(0.1, 0.0, 0.0, 0.0, 0.1, 0.0, 0.0, 0.0, 0.1)",0.2298433631658554,-0.12449848651885986,9.615114212036133,"(0.5, 0.0, 0.0, 0.0, 0.5, 0.0, 0.0, 0.0, 0.5)"
2024/07/05/10:37:57.392753,6814,1720190277,397697154,imu_link,-0.005429040640592575,0.012094184756278992,-0.6532508730888367,-0.7570254802703857,"(0.05, 0.0, 0.0, 0.0, 0.05, 0.0, 0.0, 0.0, 0.05)",-0.002128450432792306,-0.001064225216396153,0.0,"(0.1, 0.0, 0.0, 0.0, 0.1, 0.0, 0.0, 0.0, 0.1)",0.19153612852096558,-0.06224924325942993,9.543288230895996,"(0.5, 0.0, 0.0, 0.0, 0.5, 0.0, 0.0, 0.0, 0.5)"
2024/07/05/10:37:57.494870,6815,1720190277,500697154,imu_link,-0.005432079546153545,0.011994702741503716,-0.6532498598098755,-0.7570278644561768,"(0.05, 0.0, 0.0, 0.0, 0.05, 0.0, 0.0, 0.0, 0.05)",-0.001064225216396153,-0.001064225216396153,0.001064225216396153,"(0.1, 0.0, 0.0, 0.0, 0.1, 0.0, 0.0, 0.0, 0.1)",0.3016694188117981,-0.043095629662275314,9.533711433410645,"(0.5, 0.0, 0.0, 0.0, 0.5, 0.0, 0.0, 0.0, 0.5)"
2024/07/05/10:37:57.597576,6816,1720190277,603697154,imu_link,-0.005439311265945435,0.011909185908734798,-0.6532488465309143,-0.7570300698280334,"(0.05, 0.0, 0.0, 0.0, 0.05, 0.0, 0.0, 0.0, 0.05)",-0.002128450432792306,-0.001064225216396153,0.001064225216396153,"(0.1, 0.0, 0.0, 0.0, 0.1, 0.0, 0.0, 0.0, 0.1)",0.28730419278144836,-0.14844051003456116,9.653421401977539,"(0.5, 0.0, 0.0, 0.0, 0.5, 0.0, 0.0, 0.0, 0.5)"
2024/07/05/10:37:57.680747,6817,1720190277,686697154,imu_link,-0.005469546653330326,0.011896321550011635,-0.6532452702522278,-0.7570331692695618,"(0.05, 0.0, 0.0, 0.0, 0.05, 0.0, 0.0, 0.0, 0.05)",0.0,0.0,0.0,"(0.1, 0.0, 0.0, 0.0, 0.1, 0.0, 0.0, 0.0, 0.1)",0.19153612852096558,-0.08619125932455063,9.653421401977539,"(0.5, 0.0, 0.0, 0.0, 0.5, 0.0, 0.0, 0.0, 0.5)"
2024/07/05/10:37:57.783822,6818,1720190277,789697154,imu_link,-0.005464032292366028,0.011888707056641579,-0.6532585024833679,-0.7570218443870544,"(0.05, 0.0, 0.0, 0.0, 0.05, 0.0, 0.0, 0.0, 0.05)",0.0,0.0,-0.001064225216396153,"(0.1, 0.0, 0.0, 0.0, 0.1, 0.0, 0.0, 0.0, 0.1)",0.1867477297782898,-0.043095629662275314,9.552865028381348,"(0.5, 0.0, 0.0, 0.0, 0.5, 0.0, 0.0, 0.0, 0.5)"
2024/07/05/10:37:57.886137,6819,1720190277,892697154,imu_link,-0.005434601567685604,0.011961772106587887,-0.6532452702522278,-0.7570323348045349,"(0.05, 0.0, 0.0, 0.0, 0.05, 0.0, 0.0, 0.0, 0.05)",-0.001064225216396153,-0.002128450432792306,0.0,"(0.1, 0.0, 0.0, 0.0, 0.1, 0.0, 0.0, 0.0, 0.1)",0.38307225704193115,-0.07182604819536209,9.53849983215332,"(0.5, 0.0, 0.0, 0.0, 0.5, 0.0, 0.0, 0.0, 0.5)"
2024/07/05/10:37:57.989599,6820,1720190277,995697154,imu_link,-0.005439357832074165,0.011935479938983917,-0.6532623171806335,-0.7570180296897888,"(0.05, 0.0, 0.0, 0.0, 0.05, 0.0, 0.0, 0.0, 0.05)",-0.001064225216396153,-0.001064225216396153,-0.001064225216396153,"(0.1, 0.0, 0.0, 0.0, 0.1, 0.0, 0.0, 0.0, 0.1)",0.3064578175544739,-0.08619125932455063,9.682151794433594,"(0.5, 0.0, 0.0, 0.0, 0.5, 0.0, 0.0, 0.0, 0.5)"
2024/07/05/10:37:58.092909,6821,1720190278,98697154,imu_link,-0.009890398010611534,0.01753288507461548,-0.6530717015266418,-0.7570285201072693,"(0.05, 0.0, 0.0, 0.0, 0.05, 0.0, 0.0, 0.0, 0.05)",0.021284503862261772,-0.051082808524370193,0.004256900865584612,"(0.1, 0.0, 0.0, 0.0, 0.1, 0.0, 0.0, 0.0, 0.1)",1.699883222579956,-0.31124621629714966,9.423578262329102,"(0.5, 0.0, 0.0, 0.0, 0.5, 0.0, 0.0, 0.0, 0.5)"
2024/07/05/10:37:58.195659,6822,1720190278,201697154,imu_link,-0.016850916668772697,0.025011815130710602,-0.6527807712554932,-0.7569462656974792,"(0.05, 0.0, 0.0, 0.0, 0.05, 0.0, 0.0, 0.0, 0.05)",0.03299098089337349,-0.09790871292352676,-0.002128450432792306,"(0.1, 0.0, 0.0, 0.0, 0.1, 0.0, 0.0, 0.0, 0.1)",2.513911724090576,-0.7613561153411865,9.916783332824707,"(0.5, 0.0, 0.0, 0.0, 0.5, 0.0, 0.0, 0.0, 0.5)"
2024/07/05/10:37:58.279093,6823,1720190278,284697154,imu_link,-0.02020246908068657,0.02726598083972931,-0.6522766947746277,-0.7572209239006042,"(0.05, 0.0, 0.0, 0.0, 0.05, 0.0, 0.0, 0.0, 0.05)",-0.01915605366230011,0.14473462104797363,-0.004256900865584612,"(0.1, 0.0, 0.0, 0.0, 0.1, 0.0, 0.0, 0.0, 0.1)",4.371812343597412,1.0678139925003052,10.141838073730469,"(0.5, 0.0, 0.0, 0.0, 0.5, 0.0, 0.0, 0.0, 0.5)"
2024/07/05/10:37:58.382816,6824,1720190278,387697154,imu_link,-0.02277115173637867,0.026744332164525986,-0.6522585153579712,-0.7571823000907898,"(0.05, 0.0, 0.0, 0.0, 0.05, 0.0, 0.0, 0.0, 0.05)",-0.003192675532773137,0.01915605366230011,-0.017027603462338448,"(0.1, 0.0, 0.0, 0.0, 0.1, 0.0, 0.0, 0.0, 0.1)",-1.3982137441635132,-2.911349296569824,10.500968933105469,"(0.5, 0.0, 0.0, 0.0, 0.5, 0.0, 0.0, 0.0, 0.5)"
2024/07/05/10:37:58.484569,6825,1720190278,490697154,imu_link,-0.0172834862023592,0.021597648039460182,-0.6523427963256836,-0.7574191093444824,"(0.05, 0.0, 0.0, 0.0, 0.05, 0.0, 0.0, 0.0, 0.05)",-0.02979830466210842,0.08088111132383347,0.031926754862070084,"(0.1, 0.0, 0.0, 0.0, 0.1, 0.0, 0.0, 0.0, 0.1)",1.1635819673538208,-1.048660397529602,10.558429718017578,"(0.5, 0.0, 0.0, 0.0, 0.5, 0.0, 0.0, 0.0, 0.5)"
2024/07/05/10:37:58.588559,6826,1720190278,593697154,imu_link,-0.01522974856197834,0.022107597440481186,-0.653964102268219,-0.7560491561889648,"(0.05, 0.0, 0.0, 0.0, 0.05, 0.0, 0.0, 0.0, 0.05)",-0.058532387018203735,-0.02766985446214676,-0.03511942923069,"(0.1, 0.0, 0.0, 0.0, 0.1, 0.0, 0.0, 0.0, 0.1)",-1.742978811264038,-0.5410895943641663,9.404424667358398,"(0.5, 0.0, 0.0, 0.0, 0.5, 0.0, 0.0, 0.0, 0.5)"
2024/07/05/10:37:58.690763,6827,1720190278,696697154,imu_link,-0.014718267135322094,0.020998388528823853,-0.6547881364822388,-0.7553773522377014,"(0.05, 0.0, 0.0, 0.0, 0.05, 0.0, 0.0, 0.0, 0.05)",0.08194534480571747,-0.009578026831150055,0.023412954062223434,"(0.1, 0.0, 0.0, 0.0, 0.1, 0.0, 0.0, 0.0, 0.1)",-1.2258312702178955,2.1547815799713135,8.125920295715332,"(0.5, 0.0, 0.0, 0.0, 0.5, 0.0, 0.0, 0.0, 0.5)"
2024/07/05/10:37:58.793798,6828,1720190278,799697154,imu_link,-0.016043268144130707,0.01985970139503479,-0.6549686193466187,-0.7552246451377869,"(0.05, 0.0, 0.0, 0.0, 0.05, 0.0, 0.0, 0.0, 0.05)",0.01489915233105421,0.16176222264766693,0.006385351065546274,"(0.1, 0.0, 0.0, 0.0, 0.1, 0.0, 0.0, 0.0, 0.1)",2.8443117141723633,-0.5506663918495178,10.577583312988281,"(0.5, 0.0, 0.0, 0.0, 0.5, 0.0, 0.0, 0.0, 0.5)"
2024/07/05/10:37:58.896453,6829,1720190278,902697154,imu_link,-0.01736585982143879,0.02646333910524845,-0.6543855667114258,-0.7554982304573059,"(0.05, 0.0, 0.0, 0.0, 0.05, 0.0, 0.0, 0.0, 0.05)",0.05321125686168671,-0.03299098089337349,-0.01383492723107338,"(0.1, 0.0, 0.0, 0.0, 0.1, 0.0, 0.0, 0.0, 0.1)",-2.676717519760132,-0.35434186458587646,10.433931350708008,"(0.5, 0.0, 0.0, 0.0, 0.5, 0.0, 0.0, 0.0, 0.5)"
2024/07/05/10:37:58.980311,6830,1720190278,985697154,imu_link,-0.011751838028430939,0.021686559543013573,-0.6547254323959351,-0.7554641962051392,"(0.05, 0.0, 0.0, 0.0, 0.05, 0.0, 0.0, 0.0, 0.05)",0.034055206924676895,-0.07343153655529022,0.005321125965565443,"(0.1, 0.0, 0.0, 0.0, 0.1, 0.0, 0.0, 0.0, 0.1)",0.9911994934082031,1.9584569931030273,9.495404243469238,"(0.5, 0.0, 0.0, 0.0, 0.5, 0.0, 0.0, 0.0, 0.5)"
2024/07/05/10:37:59.083136,6831,1720190279,88697154,imu_link,-0.01151474379003048,0.021498192101716995,-0.6551504135131836,-0.7551047801971436,"(0.05, 0.0, 0.0, 0.0, 0.05, 0.0, 0.0, 0.0, 0.05)",-0.06385350972414017,-0.06704618781805038,0.058532387018203735,"(0.1, 0.0, 0.0, 0.0, 0.1, 0.0, 0.0, 0.0, 0.1)",0.090979665517807,0.2585737705230713,8.111555099487305,"(0.5, 0.0, 0.0, 0.0, 0.5, 0.0, 0.0, 0.0, 0.5)"
2024/07/05/10:37:59.187483,6832,1720190279,191697154,imu_link,-0.013011532835662365,0.019310977309942245,-0.6563169360160828,-0.7541258931159973,"(0.05, 0.0, 0.0, 0.0, 0.05, 0.0, 0.0, 0.0, 0.05)",0.01915605366230011,-0.05533970892429352,-0.06066083535552025,"(0.1, 0.0, 0.0, 0.0, 0.1, 0.0, 0.0, 0.0, 0.1)",-1.886630892753601,2.5953147411346436,7.881711959838867,"(0.5, 0.0, 0.0, 0.0, 0.5, 0.0, 0.0, 0.0, 0.5)"
2024/07/05/10:37:59.288794,6833,1720190279,294697154,imu_link,-0.011749928817152977,0.015787577256560326,-0.6560959815979004,-0.754420816898346,"(0.05, 0.0, 0.0, 0.0, 0.05, 0.0, 0.0, 0.0, 0.05)",-0.015963377431035042,-0.01915605366230011,0.005321125965565443,"(0.1, 0.0, 0.0, 0.0, 0.1, 0.0, 0.0, 0.0, 0.1)",4.098873138427734,0.5985504388809204,9.931148529052734,"(0.5, 0.0, 0.0, 0.0, 0.5, 0.0, 0.0, 0.0, 0.5)"
2024/07/05/10:37:59.391810,6834,1720190279,397697154,imu_link,-0.015119023621082306,0.017530592158436775,-0.6562914848327637,-0.7541521787643433,"(0.05, 0.0, 0.0, 0.0, 0.05, 0.0, 0.0, 0.0, 0.05)",-0.04469745606184006,0.08833068609237671,-0.021284503862261772,"(0.1, 0.0, 0.0, 0.0, 0.1, 0.0, 0.0, 0.0, 0.1)",-2.561795711517334,-3.5434184074401855,9.648633003234863,"(0.5, 0.0, 0.0, 0.0, 0.5, 0.0, 0.0, 0.0, 0.5)"
2024/07/05/10:37:59.494975,6835,1720190279,500697154,imu_link,-0.014504604041576385,0.015582897700369358,-0.6568455696105957,-0.7537245750427246,"(0.05, 0.0, 0.0, 0.0, 0.05, 0.0, 0.0, 0.0, 0.05)",0.10855096578598022,0.0521470308303833,-0.008513801731169224,"(0.1, 0.0, 0.0, 0.0, 0.1, 0.0, 0.0, 0.0, 0.1)",2.3271639347076416,-0.10534487664699554,10.505757331848145,"(0.5, 0.0, 0.0, 0.0, 0.5, 0.0, 0.0, 0.0, 0.5)"
2024/07/05/10:37:59.582244,6836,1720190279,583697154,imu_link,-0.009053567424416542,0.014156653545796871,-0.6575024127960205,-0.7532650232315063,"(0.05, 0.0, 0.0, 0.0, 0.05, 0.0, 0.0, 0.0, 0.05)",0.001064225216396153,0.08407378941774368,0.03937632963061333,"(0.1, 0.0, 0.0, 0.0, 0.1, 0.0, 0.0, 0.0, 0.1)",-1.6711528301239014,-1.7286136150360107,11.195286750793457,"(0.5, 0.0, 0.0, 0.0, 0.5, 0.0, 0.0, 0.0, 0.5)"
2024/07/05/10:37:59.683187,6837,1720190279,686697154,imu_link,-0.0062200697138905525,0.009686091914772987,-0.6584199070930481,-0.7525627613067627,"(0.05, 0.0, 0.0, 0.0, 0.05, 0.0, 0.0, 0.0, 0.05)",-0.025541404262185097,0.16282644867897034,0.047890130430459976,"(0.1, 0.0, 0.0, 0.0, 0.1, 0.0, 0.0, 0.0, 0.1)",-0.19632454216480255,-1.0965443849563599,9.461885452270508,"(0.5, 0.0, 0.0, 0.0, 0.5, 0.0, 0.0, 0.0, 0.5)"
2024/07/05/10:37:59.786864,6838,1720190279,789697154,imu_link,0.004045397043228149,-0.00029304996132850647,-0.6575122475624084,-0.7534329295158386,"(0.05, 0.0, 0.0, 0.0, 0.05, 0.0, 0.0, 0.0, 0.05)",-0.020220277830958366,0.042569007724523544,-0.06278928369283676,"(0.1, 0.0, 0.0, 0.0, 0.1, 0.0, 0.0, 0.0, 0.1)",-4.017470359802246,-0.009576806798577309,9.169792175292969,"(0.5, 0.0, 0.0, 0.0, 0.5, 0.0, 0.0, 0.0, 0.5)"
2024/07/05/10:37:59.893120,6839,1720190279,881149703,imu_link,0.006438257172703743,-0.002253345213830471,-0.6575977206230164,-0.7533383369445801,"(0.05, 0.0, 0.0, 0.0, 0.05, 0.0, 0.0, 0.0, 0.05)",0.009578026831150055,-0.06811041384935379,-0.011706477031111717,"(0.1, 0.0, 0.0, 0.0, 0.1, 0.0, 0.0, 0.0, 0.1)",-1.7956513166427612,0.09576806426048279,9.461885452270508,"(0.5, 0.0, 0.0, 0.0, 0.5, 0.0, 0.0, 0.0, 0.5)"
2024/07/05/10:37:59.993353,6840,1720190279,984149703,imu_link,0.008546036668121815,-0.004031918942928314,-0.6590433716773987,-0.7520455718040466,"(0.05, 0.0, 0.0, 0.0, 0.05, 0.0, 0.0, 0.0, 0.05)",-0.011706477031111717,0.018091827630996704,0.06598196178674698,"(0.1, 0.0, 0.0, 0.0, 0.1, 0.0, 0.0, 0.0, 0.1)",-1.1971008777618408,-0.028730420395731926,9.399636268615723,"(0.5, 0.0, 0.0, 0.0, 0.5, 0.0, 0.0, 0.0, 0.5)"
2024/07/05/10:38:00.094858,6841,1720190280,87149703,imu_link,0.007112689316272736,-0.002403559163212776,-0.666100263595581,-0.7458244562149048,"(0.05, 0.0, 0.0, 0.0, 0.05, 0.0, 0.0, 0.0, 0.05)",-0.01915605366230011,-0.042569007724523544,0.2266799658536911,"(0.1, 0.0, 0.0, 0.0, 0.1, 0.0, 0.0, 0.0, 0.1)",-0.5602431893348694,-0.0,9.217676162719727,"(0.5, 0.0, 0.0, 0.0, 0.5, 0.0, 0.0, 0.0, 0.5)"
2024/07/05/10:38:00.198071,6842,1720190280,190149703,imu_link,0.007532075047492981,-0.0024146633222699165,-0.6739794015884399,-0.7387077808380127,"(0.05, 0.0, 0.0, 0.0, 0.05, 0.0, 0.0, 0.0, 0.05)",0.003192675532773137,-0.006385351065546274,0.2926619350910187,"(0.1, 0.0, 0.0, 0.0, 0.1, 0.0, 0.0, 0.0, 0.1)",0.1149216815829277,-0.16759411990642548,9.945513725280762,"(0.5, 0.0, 0.0, 0.0, 0.5, 0.0, 0.0, 0.0, 0.5)"
2024/07/05/10:38:00.280187,6843,1720190280,273149703,imu_link,0.005173351615667343,-0.0011508716270327568,-0.6885284185409546,-0.7251899838447571,"(0.05, 0.0, 0.0, 0.0, 0.05, 0.0, 0.0, 0.0, 0.05)",-0.018091827630996704,0.09578026086091995,0.6076725721359253,"(0.1, 0.0, 0.0, 0.0, 0.1, 0.0, 0.0, 0.0, 0.1)",0.2346317619085312,0.21547815203666687,10.338163375854492,"(0.5, 0.0, 0.0, 0.0, 0.5, 0.0, 0.0, 0.0, 0.5)"
2024/07/05/10:38:00.382210,6844,1720190280,376149703,imu_link,0.0031647412106394768,-0.0023193713277578354,-0.711454451084137,-0.7027212381362915,"(0.05, 0.0, 0.0, 0.0, 0.05, 0.0, 0.0, 0.0, 0.05)",0.01383492723107338,0.018091827630996704,0.7194162011146545,"(0.1, 0.0, 0.0, 0.0, 0.1, 0.0, 0.0, 0.0, 0.1)",1.41257905960083,0.11971008777618408,9.797073364257812,"(0.5, 0.0, 0.0, 0.0, 0.5, 0.0, 0.0, 0.0, 0.5)"
2024/07/05/10:38:00.484835,6845,1720190280,479149703,imu_link,0.0017491457983851433,-0.002589290961623192,-0.7391364574432373,-0.6735484600067139,"(0.05, 0.0, 0.0, 0.0, 0.05, 0.0, 0.0, 0.0, 0.05)",-0.030862528830766678,0.06066083535552025,0.8449947834014893,"(0.1, 0.0, 0.0, 0.0, 0.1, 0.0, 0.0, 0.0, 0.1)",0.9816226959228516,-1.479616641998291,9.892841339111328,"(0.5, 0.0, 0.0, 0.0, 0.5, 0.0, 0.0, 0.0, 0.5)"
2024/07/05/10:38:00.588018,6846,1720190280,582149703,imu_link,0.0025707874447107315,-0.002296173945069313,-0.7651450037956238,-0.6438487768173218,"(0.05, 0.0, 0.0, 0.0, 0.05, 0.0, 0.0, 0.0, 0.05)",0.10748674720525742,-0.07981688529253006,0.6193790435791016,"(0.1, 0.0, 0.0, 0.0, 0.1, 0.0, 0.0, 0.0, 0.1)",0.7230489253997803,1.6759412288665771,10.204087257385254,"(0.5, 0.0, 0.0, 0.0, 0.5, 0.0, 0.0, 0.0, 0.5)"
2024/07/05/10:38:00.690049,6847,1720190280,685149703,imu_link,0.001231187954545021,-0.002657134085893631,-0.7898156046867371,-0.6133373975753784,"(0.05, 0.0, 0.0, 0.0, 0.05, 0.0, 0.0, 0.0, 0.05)",0.05321125686168671,-0.06385350972414017,0.5608466863632202,"(0.1, 0.0, 0.0, 0.0, 0.1, 0.0, 0.0, 0.0, 0.1)",0.2537853717803955,-0.8427590131759644,10.453084945678711,"(0.5, 0.0, 0.0, 0.0, 0.5, 0.0, 0.0, 0.0, 0.5)"
2024/07/05/10:38:00.793761,6848,1720190280,788149703,imu_link,0.0041405437514185905,-0.0019989488646388054,-0.7975698113441467,-0.6032091379165649,"(0.05, 0.0, 0.0, 0.0, 0.05, 0.0, 0.0, 0.0, 0.05)",0.026605628430843353,-0.004256900865584612,-0.13515660166740417,"(0.1, 0.0, 0.0, 0.0, 0.1, 0.0, 0.0, 0.0, 0.1)",-0.7422025203704834,0.11971008777618408,9.830592155456543,"(0.5, 0.0, 0.0, 0.0, 0.5, 0.0, 0.0, 0.0, 0.5)"
2024/07/05/10:38:00.876233,6849,1720190280,871149703,imu_link,0.0026563135907053947,-0.0004944354295730591,-0.7941474318504333,-0.6077191233634949,"(0.05, 0.0, 0.0, 0.0, 0.05, 0.0, 0.0, 0.0, 0.05)",0.005321125965565443,0.02447717823088169,-0.07981688529253006,"(0.1, 0.0, 0.0, 0.0, 0.1, 0.0, 0.0, 0.0, 0.1)",0.8858546018600464,0.10534487664699554,9.38048267364502,"(0.5, 0.0, 0.0, 0.0, 0.5, 0.0, 0.0, 0.0, 0.5)"
2024/07/05/10:38:00.979369,6850,1720190280,974149703,imu_link,0.0020890971645712852,-0.0001087607815861702,-0.7928861975669861,-0.6093661785125732,"(0.05, 0.0, 0.0, 0.0, 0.05, 0.0, 0.0, 0.0, 0.05)",0.004256900865584612,-0.003192675532773137,-0.01383492723107338,"(0.1, 0.0, 0.0, 0.0, 0.1, 0.0, 0.0, 0.0, 0.1)",0.06703764945268631,0.019153613597154617,9.624691009521484,"(0.5, 0.0, 0.0, 0.0, 0.5, 0.0, 0.0, 0.0, 0.5)"
2024/07/05/10:38:01.083050,6851,1720190281,77149703,imu_link,0.001378997229039669,0.00041721761226654053,-0.7926341891288757,-0.6096957921981812,"(0.05, 0.0, 0.0, 0.0, 0.05, 0.0, 0.0, 0.0, 0.05)",0.0,0.002128450432792306,-0.007449576165527105,"(0.1, 0.0, 0.0, 0.0, 0.1, 0.0, 0.0, 0.0, 0.1)",0.13407529890537262,-0.05267243832349777,9.581595420837402,"(0.5, 0.0, 0.0, 0.0, 0.5, 0.0, 0.0, 0.0, 0.5)"
2024/07/05/10:38:01.185497,6852,1720190281,180149703,imu_link,0.0009956136345863342,0.0008003730326890945,-0.7925013899803162,-0.6098687648773193,"(0.05, 0.0, 0.0, 0.0, 0.05, 0.0, 0.0, 0.0, 0.05)",-0.003192675532773137,-0.007449576165527105,-0.009578026831150055,"(0.1, 0.0, 0.0, 0.0, 0.1, 0.0, 0.0, 0.0, 0.1)",0.08140286058187485,-0.12928688526153564,9.653421401977539,"(0.5, 0.0, 0.0, 0.0, 0.5, 0.0, 0.0, 0.0, 0.5)"
2024/07/05/10:38:01.291898,6853,1720190281,283149703,imu_link,-0.0021875174716115,0.003999650478363037,-0.7898914813995361,-0.6132297515869141,"(0.05, 0.0, 0.0, 0.0, 0.05, 0.0, 0.0, 0.0, 0.05)",-0.015963377431035042,-0.04044055566191673,0.1223858892917633,"(0.1, 0.0, 0.0, 0.0, 0.1, 0.0, 0.0, 0.0, 0.1)",2.1595699787139893,0.10534487664699554,9.481039047241211,"(0.5, 0.0, 0.0, 0.0, 0.5, 0.0, 0.0, 0.0, 0.5)"
2024/07/05/10:38:01.394573,6854,1720190281,386149703,imu_link,-0.012652804143726826,0.011522055603563786,-0.7891067862510681,-0.6140176653862,"(0.05, 0.0, 0.0, 0.0, 0.05, 0.0, 0.0, 0.0, 0.05)",-0.004256900865584612,-0.04682590812444687,-0.003192675532773137,"(0.1, 0.0, 0.0, 0.0, 0.1, 0.0, 0.0, 0.0, 0.1)",1.455674648284912,0.4596867263317108,9.155426979064941,"(0.5, 0.0, 0.0, 0.0, 0.5, 0.0, 0.0, 0.0, 0.5)"
2024/07/05/10:38:01.500497,6855,1720190281,489149703,imu_link,-0.016191186383366585,0.01586841233074665,-0.7903707027435303,-0.6122093200683594,"(0.05, 0.0, 0.0, 0.0, 0.05, 0.0, 0.0, 0.0, 0.05)",0.005321125965565443,0.058532387018203735,0.03937632963061333,"(0.1, 0.0, 0.0, 0.0, 0.1, 0.0, 0.0, 0.0, 0.1)",4.094084739685059,-0.15322890877723694,8.916007041931152,"(0.5, 0.0, 0.0, 0.0, 0.5, 0.0, 0.0, 0.0, 0.5)"
2024/07/05/10:38:01.577941,6856,1720190281,572149703,imu_link,-0.021232301369309425,0.021083852276206017,-0.7921413779258728,-0.6096037030220032,"(0.05, 0.0, 0.0, 0.0, 0.05, 0.0, 0.0, 0.0, 0.05)",-0.05746815726161003,-0.023412954062223434,0.07449576258659363,"(0.1, 0.0, 0.0, 0.0, 0.1, 0.0, 0.0, 0.0, 0.1)",0.751779317855835,-1.1875240802764893,9.792284965515137,"(0.5, 0.0, 0.0, 0.0, 0.5, 0.0, 0.0, 0.0, 0.5)"
2024/07/05/10:38:01.681443,6857,1720190281,675149703,imu_link,-0.017289329320192337,0.019655492156744003,-0.7936710715293884,-0.6077836751937866,"(0.05, 0.0, 0.0, 0.0, 0.05, 0.0, 0.0, 0.0, 0.05)",-0.10216561704874039,-0.07662421464920044,-0.011706477031111717,"(0.1, 0.0, 0.0, 0.0, 0.1, 0.0, 0.0, 0.0, 0.1)",-0.45010992884635925,0.7661445140838623,8.274360656738281,"(0.5, 0.0, 0.0, 0.0, 0.5, 0.0, 0.0, 0.0, 0.5)"
2024/07/05/10:38:01.790013,6858,1720190281,778149703,imu_link,-0.015950437635183334,0.014101490378379822,-0.7950292229652405,-0.6061974167823792,"(0.05, 0.0, 0.0, 0.0, 0.05, 0.0, 0.0, 0.0, 0.05)",-0.020220277830958366,0.051082808524370193,0.03831210732460022,"(0.1, 0.0, 0.0, 0.0, 0.1, 0.0, 0.0, 0.0, 0.1)",3.509899616241455,1.192312479019165,11.750741958618164,"(0.5, 0.0, 0.0, 0.0, 0.5, 0.0, 0.0, 0.0, 0.5)"
2024/07/05/10:38:01.894544,6859,1720190281,881149703,imu_link,-0.016268644481897354,0.017240989953279495,-0.7950661182403564,-0.6060593724250793,"(0.05, 0.0, 0.0, 0.0, 0.05, 0.0, 0.0, 0.0, 0.05)",0.03831210732460022,-0.11812899261713028,0.002128450432792306,"(0.1, 0.0, 0.0, 0.0, 0.1, 0.0, 0.0, 0.0, 0.1)",-0.08619125932455063,0.4644751250743866,10.137049674987793,"(0.5, 0.0, 0.0, 0.0, 0.5, 0.0, 0.0, 0.0, 0.5)"
2024/07/05/10:38:01.989996,6860,1720190281,984149703,imu_link,-0.015918154269456863,0.01632547378540039,-0.7956587076187134,-0.6053158640861511,"(0.05, 0.0, 0.0, 0.0, 0.05, 0.0, 0.0, 0.0, 0.05)",0.06704618781805038,0.07343153655529022,0.05959660932421684,"(0.1, 0.0, 0.0, 0.0, 0.1, 0.0, 0.0, 0.0, 0.1)",-2.2361843585968018,-1.7046716213226318,10.936713218688965,"(0.5, 0.0, 0.0, 0.0, 0.5, 0.0, 0.0, 0.0, 0.5)"
2024/07/05/10:38:02.092973,6861,1720190282,87149703,imu_link,-0.014966257847845554,0.017040923237800598,-0.7962623834609985,-0.6045261025428772,"(0.05, 0.0, 0.0, 0.0, 0.05, 0.0, 0.0, 0.0, 0.05)",0.05959660932421684,0.07662421464920044,0.042569007724523544,"(0.1, 0.0, 0.0, 0.0, 0.1, 0.0, 0.0, 0.0, 0.1)",-2.030282974243164,-2.2840683460235596,10.65898609161377,"(0.5, 0.0, 0.0, 0.0, 0.5, 0.0, 0.0, 0.0, 0.5)"
2024/07/05/10:38:02.175691,6862,1720190282,170149703,imu_link,-0.01181830558925867,0.017541145905852318,-0.7965853810310364,-0.6041558980941772,"(0.05, 0.0, 0.0, 0.0, 0.05, 0.0, 0.0, 0.0, 0.05)",-0.05001858249306679,-0.05001858249306679,0.025541404262185097,"(0.1, 0.0, 0.0, 0.0, 0.1, 0.0, 0.0, 0.0, 0.1)",0.2298433631658554,-2.5474305152893066,11.195286750793457,"(0.5, 0.0, 0.0, 0.0, 0.5, 0.0, 0.0, 0.0, 0.5)"
2024/07/05/10:38:02.285645,6863,1720190282,273149703,imu_link,-0.009138346649706364,0.0137540427967906,-0.7971572279930115,-0.6035459041595459,"(0.05, 0.0, 0.0, 0.0, 0.05, 0.0, 0.0, 0.0, 0.05)",-0.0872664600610733,0.026605628430843353,-0.004256900865584612,"(0.1, 0.0, 0.0, 0.0, 0.1, 0.0, 0.0, 0.0, 0.1)",-0.1867477297782898,-0.6560112833976746,9.916783332824707,"(0.5, 0.0, 0.0, 0.0, 0.5, 0.0, 0.0, 0.0, 0.5)"
2024/07/05/10:38:02.381244,6864,1720190282,376149703,imu_link,-0.011675477959215641,0.016868017613887787,-0.7976405024528503,-0.6027842164039612,"(0.05, 0.0, 0.0, 0.0, 0.05, 0.0, 0.0, 0.0, 0.05)",0.01915605366230011,-0.05959660932421684,0.023412954062223434,"(0.1, 0.0, 0.0, 0.0, 0.1, 0.0, 0.0, 0.0, 0.1)",-2.9257144927978516,-1.436521053314209,9.289502143859863,"(0.5, 0.0, 0.0, 0.0, 0.5, 0.0, 0.0, 0.0, 0.5)"
2024/07/05/10:38:02.484650,6865,1720190282,489408254,imu_link,-0.010631754994392395,0.014229007065296173,-0.7979299426078796,-0.6024884581565857,"(0.05, 0.0, 0.0, 0.0, 0.05, 0.0, 0.0, 0.0, 0.05)",-0.001064225216396153,-0.001064225216396153,-0.006385351065546274,"(0.1, 0.0, 0.0, 0.0, 0.1, 0.0, 0.0, 0.0, 0.1)",2.7724854946136475,-0.9864110946655273,10.491392135620117,"(0.5, 0.0, 0.0, 0.0, 0.5, 0.0, 0.0, 0.0, 0.5)"
2024/07/05/10:38:02.588233,6866,1720190282,592408254,imu_link,-0.008569559082388878,0.013709621503949165,-0.798210620880127,-0.6021614670753479,"(0.05, 0.0, 0.0, 0.0, 0.05, 0.0, 0.0, 0.0, 0.05)",0.08939491212368011,0.07130308449268341,0.034055206924676895,"(0.1, 0.0, 0.0, 0.0, 0.1, 0.0, 0.0, 0.0, 0.1)",-2.513911724090576,-2.868253707885742,10.02691650390625,"(0.5, 0.0, 0.0, 0.0, 0.5, 0.0, 0.0, 0.0, 0.5)"
2024/07/05/10:38:02.690761,6867,1720190282,695408254,imu_link,-0.008185530081391335,0.018807806074619293,-0.7984580993652344,-0.6017009019851685,"(0.05, 0.0, 0.0, 0.0, 0.05, 0.0, 0.0, 0.0, 0.05)",0.1926247626543045,0.12451434880495071,-0.01489915233105421,"(0.1, 0.0, 0.0, 0.0, 0.1, 0.0, 0.0, 0.0, 0.1)",0.1867477297782898,-2.920926094055176,9.074024200439453,"(0.5, 0.0, 0.0, 0.0, 0.5, 0.0, 0.0, 0.0, 0.5)"
2024/07/05/10:38:02.793816,6868,1720190282,798408254,imu_link,-0.005456800572574139,0.017474347725510597,-0.7986957430839539,-0.6014565229415894,"(0.05, 0.0, 0.0, 0.0, 0.05, 0.0, 0.0, 0.0, 0.05)",0.0,0.031926754862070084,0.012770702131092548,"(0.1, 0.0, 0.0, 0.0, 0.1, 0.0, 0.0, 0.0, 0.1)",1.0199298858642578,-1.4508862495422363,8.638279914855957,"(0.5, 0.0, 0.0, 0.0, 0.5, 0.0, 0.0, 0.0, 0.5)"
2024/07/05/10:38:02.879004,6869,1720190282,881408254,imu_link,-0.006281085312366486,0.01898065209388733,-0.7991626858711243,-0.6007822155952454,"(0.05, 0.0, 0.0, 0.0, 0.05, 0.0, 0.0, 0.0, 0.05)",0.010642251931130886,0.061725057661533356,0.002128450432792306,"(0.1, 0.0, 0.0, 0.0, 0.1, 0.0, 0.0, 0.0, 0.1)",-1.4269442558288574,1.3742717504501343,8.89685344696045,"(0.5, 0.0, 0.0, 0.0, 0.5, 0.0, 0.0, 0.0, 0.5)"
2024/07/05/10:38:02.982346,6870,1720190282,984408254,imu_link,-0.004053017124533653,0.015435383655130863,-0.7994219660758972,-0.6005579233169556,"(0.05, 0.0, 0.0, 0.0, 0.05, 0.0, 0.0, 0.0, 0.05)",-0.03937632963061333,-0.07236731052398682,-0.005321125965565443,"(0.1, 0.0, 0.0, 0.0, 0.1, 0.0, 0.0, 0.0, 0.1)",-2.126051187515259,-2.0159177780151367,9.198522567749023,"(0.5, 0.0, 0.0, 0.0, 0.5, 0.0, 0.0, 0.0, 0.5)"
2024/07/05/10:38:03.086940,6871,1720190283,87408254,imu_link,-0.0026176664978265762,0.016179505735635757,-0.7996240258216858,-0.600277304649353,"(0.05, 0.0, 0.0, 0.0, 0.05, 0.0, 0.0, 0.0, 0.05)",-0.1213216707110405,-0.13089969754219055,-0.02234872803092003,"(0.1, 0.0, 0.0, 0.0, 0.1, 0.0, 0.0, 0.0, 0.1)",-0.13407529890537262,0.3926490843296051,7.704541206359863,"(0.5, 0.0, 0.0, 0.0, 0.5, 0.0, 0.0, 0.0, 0.5)"
2024/07/05/10:38:03.189314,6872,1720190283,190408254,imu_link,-0.0011738669127225876,0.012496791779994965,-0.7999255657196045,-0.5999679565429688,"(0.05, 0.0, 0.0, 0.0, 0.05, 0.0, 0.0, 0.0, 0.05)",0.04150478169322014,0.06385350972414017,0.037247881293296814,"(0.1, 0.0, 0.0, 0.0, 0.1, 0.0, 0.0, 0.0, 0.1)",-2.959233283996582,1.5514427423477173,8.801085472106934,"(0.5, 0.0, 0.0, 0.0, 0.5, 0.0, 0.0, 0.0, 0.5)"
2024/07/05/10:38:03.291812,6873,1720190283,293408254,imu_link,0.0009608296677470207,0.011427934281527996,-0.8002243638038635,-0.5995910167694092,"(0.05, 0.0, 0.0, 0.0, 0.05, 0.0, 0.0, 0.0, 0.05)",0.08513801544904709,-0.037247881293296814,0.009578026831150055,"(0.1, 0.0, 0.0, 0.0, 0.1, 0.0, 0.0, 0.0, 0.1)",-0.8427590131759644,-1.115697979927063,10.156203269958496,"(0.5, 0.0, 0.0, 0.0, 0.5, 0.0, 0.0, 0.0, 0.5)"
2024/07/05/10:38:03.394819,6874,1720190283,396408254,imu_link,-0.0001634601503610611,0.011971677653491497,-0.800649106502533,-0.5990139245986938,"(0.05, 0.0, 0.0, 0.0, 0.05, 0.0, 0.0, 0.0, 0.05)",0.11387208849191666,0.09045914560556412,0.03511942923069,"(0.1, 0.0, 0.0, 0.0, 0.1, 0.0, 0.0, 0.0, 0.1)",2.5953147411346436,-1.4221558570861816,9.279925346374512,"(0.5, 0.0, 0.0, 0.0, 0.5, 0.0, 0.0, 0.0, 0.5)"
2024/07/05/10:38:03.477028,6875,1720190283,479408254,imu_link,-0.002864772453904152,0.01411672867834568,-0.8011687397956848,-0.5982651114463806,"(0.05, 0.0, 0.0, 0.0, 0.05, 0.0, 0.0, 0.0, 0.05)",0.010642251931130886,0.021284503862261772,0.009578026831150055,"(0.1, 0.0, 0.0, 0.0, 0.1, 0.0, 0.0, 0.0, 0.1)",1.173158884048462,0.45489832758903503,10.002974510192871,"(0.5, 0.0, 0.0, 0.0, 0.5, 0.0, 0.0, 0.0, 0.5)"
2024/07/05/10:38:03.578068,6876,1720190283,582408254,imu_link,-0.004042682237923145,0.01680954545736313,-0.80122971534729,-0.5981070399284363,"(0.05, 0.0, 0.0, 0.0, 0.05, 0.0, 0.0, 0.0, 0.05)",-0.09365181624889374,0.04682590812444687,-0.020220277830958366,"(0.1, 0.0, 0.0, 0.0, 0.1, 0.0, 0.0, 0.0, 0.1)",2.5522189140319824,-0.2968810200691223,10.285490036010742,"(0.5, 0.0, 0.0, 0.0, 0.5, 0.0, 0.0, 0.0, 0.5)"
2024/07/05/10:38:03.680876,6877,1720190283,685408254,imu_link,-0.004382704384624958,0.010985592380166054,-0.8015320301055908,-0.5978348851203918,"(0.05, 0.0, 0.0, 0.0, 0.05, 0.0, 0.0, 0.0, 0.05)",-0.13515660166740417,-0.025541404262185097,0.0,"(0.1, 0.0, 0.0, 0.0, 0.1, 0.0, 0.0, 0.0, 0.1)",1.0342950820922852,-1.1252747774124146,9.217676162719727,"(0.5, 0.0, 0.0, 0.0, 0.5, 0.0, 0.0, 0.0, 0.5)"
2024/07/05/10:38:03.784555,6878,1720190283,788408254,imu_link,-0.004895751364529133,0.012130878865718842,-0.8018137216567993,-0.5974308848381042,"(0.05, 0.0, 0.0, 0.0, 0.05, 0.0, 0.0, 0.0, 0.05)",-0.015963377431035042,-0.042569007724523544,-0.01915605366230011,"(0.1, 0.0, 0.0, 0.0, 0.1, 0.0, 0.0, 0.0, 0.1)",1.2737152576446533,-1.072602391242981,8.78193187713623,"(0.5, 0.0, 0.0, 0.0, 0.5, 0.0, 0.0, 0.0, 0.5)"
2024/07/05/10:38:03.887417,6879,1720190283,891408254,imu_link,-0.0063752951100468636,0.011296441778540611,-0.802375316619873,-0.5966787934303284,"(0.05, 0.0, 0.0, 0.0, 0.05, 0.0, 0.0, 0.0, 0.05)",-0.023412954062223434,0.05427548289299011,0.008513801731169224,"(0.1, 0.0, 0.0, 0.0, 0.1, 0.0, 0.0, 0.0, 0.1)",-0.2298433631658554,1.556231141090393,10.615890502929688,"(0.5, 0.0, 0.0, 0.0, 0.5, 0.0, 0.0, 0.0, 0.5)"
2024/07/05/10:38:03.990077,6880,1720190283,994408254,imu_link,-0.00750321988016367,0.012221289798617363,-0.8026745319366455,-0.5962448716163635,"(0.05, 0.0, 0.0, 0.0, 0.05, 0.0, 0.0, 0.0, 0.05)",0.07981688529253006,0.09684448689222336,0.01383492723107338,"(0.1, 0.0, 0.0, 0.0, 0.1, 0.0, 0.0, 0.0, 0.1)",0.1628057211637497,-0.23942017555236816,10.8505220413208,"(0.5, 0.0, 0.0, 0.0, 0.5, 0.0, 0.0, 0.0, 0.5)"
2024/07/05/10:38:04.093628,6881,1720190284,97408254,imu_link,-0.006225139833986759,0.013683575205504894,-0.8030582666397095,-0.5957108736038208,"(0.05, 0.0, 0.0, 0.0, 0.05, 0.0, 0.0, 0.0, 0.05)",0.1394134908914566,0.12770701944828033,0.026605628430843353,"(0.1, 0.0, 0.0, 0.0, 0.1, 0.0, 0.0, 0.0, 0.1)",-2.10210919380188,-1.5753847360610962,8.365341186523438,"(0.5, 0.0, 0.0, 0.0, 0.5, 0.0, 0.0, 0.0, 0.5)"
2024/07/05/10:38:04.176180,6882,1720190284,180408254,imu_link,-0.007501301355659962,0.012640071101486683,-0.8111379146575928,-0.5846701860427856,"(0.05, 0.0, 0.0, 0.0, 0.05, 0.0, 0.0, 0.0, 0.05)",0.031926754862070084,0.11067941784858704,0.5448833107948303,"(0.1, 0.0, 0.0, 0.0, 0.1, 0.0, 0.0, 0.0, 0.1)",-2.7006595134735107,3.1747114658355713,9.385271072387695,"(0.5, 0.0, 0.0, 0.0, 0.5, 0.0, 0.0, 0.0, 0.5)"
2024/07/05/10:38:04.279279,6883,1720190284,283408254,imu_link,-0.013397503644227982,0.0067123668268322945,-0.8292855620384216,-0.5586241483688354,"(0.05, 0.0, 0.0, 0.0, 0.05, 0.0, 0.0, 0.0, 0.05)",0.10961519181728363,0.01383492723107338,0.6917463541030884,"(0.1, 0.0, 0.0, 0.0, 0.1, 0.0, 0.0, 0.0, 0.1)",-4.668693542480469,-2.4229321479797363,10.050858497619629,"(0.5, 0.0, 0.0, 0.0, 0.5, 0.0, 0.0, 0.0, 0.5)"
2024/07/05/10:38:04.381827,6884,1720190284,386408254,imu_link,-0.006991204805672169,0.009765667840838432,-0.8494620323181152,-0.5275130867958069,"(0.05, 0.0, 0.0, 0.0, 0.05, 0.0, 0.0, 0.0, 0.05)",0.04044055566191673,0.06598196178674698,0.7864624261856079,"(0.1, 0.0, 0.0, 0.0, 0.1, 0.0, 0.0, 0.0, 0.1)",2.1978771686553955,2.3750481605529785,8.078036308288574,"(0.5, 0.0, 0.0, 0.0, 0.5, 0.0, 0.0, 0.0, 0.5)"
2024/07/05/10:38:04.484832,6885,1720190284,489408254,imu_link,-0.012708430178463459,0.004750210791826248,-0.8698056936264038,-0.4932078719139099,"(0.05, 0.0, 0.0, 0.0, 0.05, 0.0, 0.0, 0.0, 0.05)",-0.017027603462338448,0.06278928369283676,0.8258387446403503,"(0.1, 0.0, 0.0, 0.0, 0.1, 0.0, 0.0, 0.0, 0.1)",4.309563159942627,-2.140416383743286,7.0341644287109375,"(0.5, 0.0, 0.0, 0.0, 0.5, 0.0, 0.0, 0.0, 0.5)"
2024/07/05/10:38:04.588082,6886,1720190284,592408254,imu_link,-0.008331499062478542,0.0018259063363075256,-0.889009416103363,-0.4578095078468323,"(0.05, 0.0, 0.0, 0.0, 0.05, 0.0, 0.0, 0.0, 0.05)",0.011706477031111717,0.004256900865584612,0.8258387446403503,"(0.1, 0.0, 0.0, 0.0, 0.1, 0.0, 0.0, 0.0, 0.1)",-2.5905263423919678,2.4851813316345215,7.55131196975708,"(0.5, 0.0, 0.0, 0.0, 0.5, 0.0, 0.0, 0.0, 0.5)"
2024/07/05/10:38:04.690505,6887,1720190284,695408254,imu_link,-0.005949170328676701,-0.002867964096367359,-0.9070635437965393,-0.42094191908836365,"(0.05, 0.0, 0.0, 0.0, 0.05, 0.0, 0.0, 0.0, 0.05)",0.13409237563610077,0.07236731052398682,0.8375451564788818,"(0.1, 0.0, 0.0, 0.0, 0.1, 0.0, 0.0, 0.0, 0.1)",1.2545616626739502,3.9647979736328125,7.709329605102539,"(0.5, 0.0, 0.0, 0.0, 0.5, 0.0, 0.0, 0.0, 0.5)"
2024/07/05/10:38:04.773881,6888,1720190284,778408254,imu_link,-0.0032353224232792854,-0.00938241183757782,-0.9236111640930176,-0.3832021653652191,"(0.05, 0.0, 0.0, 0.0, 0.05, 0.0, 0.0, 0.0, 0.05)",-0.02447717823088169,-0.005321125965565443,0.8024258017539978,"(0.1, 0.0, 0.0, 0.0, 0.1, 0.0, 0.0, 0.0, 0.1)",-6.042964935302734,3.3470940589904785,8.767566680908203,"(0.5, 0.0, 0.0, 0.0, 0.5, 0.0, 0.0, 0.0, 0.5)"
2024/07/05/10:38:04.876864,6889,1720190284,881408254,imu_link,0.0026271305978298187,-0.012237331829965115,-0.9386893510818481,-0.3445369303226471,"(0.05, 0.0, 0.0, 0.0, 0.05, 0.0, 0.0, 0.0, 0.05)",0.05001858249306679,-0.020220277830958366,0.8290314078330994,"(0.1, 0.0, 0.0, 0.0, 0.1, 0.0, 0.0, 0.0, 0.1)",2.8586769104003906,-1.556231141090393,10.524910926818848,"(0.5, 0.0, 0.0, 0.0, 0.5, 0.0, 0.0, 0.0, 0.5)"
2024/07/05/10:38:04.980455,6890,1720190284,972732295,imu_link,0.003777751699090004,-0.016936779022216797,-0.9519546627998352,-0.3057468831539154,"(0.05, 0.0, 0.0, 0.0, 0.05, 0.0, 0.0, 0.0, 0.05)",0.061725057661533356,0.08300956338644028,0.8311598300933838,"(0.1, 0.0, 0.0, 0.0, 0.1, 0.0, 0.0, 0.0, 0.1)",3.3039982318878174,-2.518700122833252,10.247182846069336,"(0.5, 0.0, 0.0, 0.0, 0.5, 0.0, 0.0, 0.0, 0.5)"
2024/07/05/10:38:05.083714,6891,1720190285,75732295,imu_link,0.00747029110789299,-0.017884796485304832,-0.9639484286308289,-0.2653822898864746,"(0.05, 0.0, 0.0, 0.0, 0.05, 0.0, 0.0, 0.0, 0.05)",0.0,0.04363323003053665,0.8684077262878418,"(0.1, 0.0, 0.0, 0.0, 0.1, 0.0, 0.0, 0.0, 0.1)",-0.42616790533065796,7.0772600173950195,11.923124313354492,"(0.5, 0.0, 0.0, 0.0, 0.5, 0.0, 0.0, 0.0, 0.5)"
2024/07/05/10:38:05.186289,6892,1720190285,178732295,imu_link,0.0055116452276706696,-0.02608807384967804,-0.9738183617591858,-0.22575846314430237,"(0.05, 0.0, 0.0, 0.0, 0.05, 0.0, 0.0, 0.0, 0.05)",0.10535828769207001,-0.08513801544904709,0.7853981852531433,"(0.1, 0.0, 0.0, 0.0, 0.1, 0.0, 0.0, 0.0, 0.1)",3.825934410095215,-0.9002198576927185,6.430825710296631,"(0.5, 0.0, 0.0, 0.0, 0.5, 0.0, 0.0, 0.0, 0.5)"
2024/07/05/10:38:05.289113,6893,1720190285,281732295,imu_link,-0.004128571599721909,-0.031173430383205414,-0.9818893671035767,-0.18682727217674255,"(0.05, 0.0, 0.0, 0.0, 0.05, 0.0, 0.0, 0.0, 0.05)",0.06704618781805038,0.015963377431035042,0.8056184649467468,"(0.1, 0.0, 0.0, 0.0, 0.1, 0.0, 0.0, 0.0, 0.1)",-7.608773231506348,-1.6089035272598267,9.44752025604248,"(0.5, 0.0, 0.0, 0.0, 0.5, 0.0, 0.0, 0.0, 0.5)"
2024/07/05/10:38:05.392370,6894,1720190285,384732295,imu_link,0.0005479585379362106,-0.03171008825302124,-0.988599956035614,-0.14718791842460632,"(0.05, 0.0, 0.0, 0.0, 0.05, 0.0, 0.0, 0.0, 0.05)",-0.04895435646176338,0.242643341422081,0.8311598300933838,"(0.1, 0.0, 0.0, 0.0, 0.1, 0.0, 0.0, 0.0, 0.1)",-0.5171475410461426,-0.507570743560791,8.69095230102539,"(0.5, 0.0, 0.0, 0.0, 0.5, 0.0, 0.0, 0.0, 0.5)"
2024/07/05/10:38:05.475129,6895,1720190285,467732295,imu_link,0.009086547419428825,-0.034002114087343216,-0.993733286857605,-0.10609158128499985,"(0.05, 0.0, 0.0, 0.0, 0.05, 0.0, 0.0, 0.0, 0.05)",0.10110139101743698,0.02234872803092003,0.8247745037078857,"(0.1, 0.0, 0.0, 0.0, 0.1, 0.0, 0.0, 0.0, 0.1)",0.4836287498474121,1.9345149993896484,12.301408767700195,"(0.5, 0.0, 0.0, 0.0, 0.5, 0.0, 0.0, 0.0, 0.5)"
2024/07/05/10:38:05.578312,6896,1720190285,570732295,imu_link,0.012840268202126026,-0.03235974907875061,-0.9972963333129883,-0.06471438705921173,"(0.05, 0.0, 0.0, 0.0, 0.05, 0.0, 0.0, 0.0, 0.05)",0.023412954062223434,0.005321125965565443,0.8354167938232422,"(0.1, 0.0, 0.0, 0.0, 0.1, 0.0, 0.0, 0.0, 0.1)",0.9672574996948242,0.8762778043746948,11.022904396057129,"(0.5, 0.0, 0.0, 0.0, 0.5, 0.0, 0.0, 0.0, 0.5)"
2024/07/05/10:38:05.680515,6897,1720190285,673732295,imu_link,0.00927813071757555,-0.03149929642677307,-0.9992017149925232,-0.022751543670892715,"(0.05, 0.0, 0.0, 0.0, 0.05, 0.0, 0.0, 0.0, 0.05)",-0.042569007724523544,-0.03831210732460022,0.8726646304130554,"(0.1, 0.0, 0.0, 0.0, 0.1, 0.0, 0.0, 0.0, 0.1)",3.069366693496704,-5.056553840637207,10.251971244812012,"(0.5, 0.0, 0.0, 0.0, 0.5, 0.0, 0.0, 0.0, 0.5)"
2024/07/05/10:38:05.784358,6898,1720190285,776732295,imu_link,0.006988441571593285,-0.035387396812438965,-0.9991015195846558,0.022248491644859314,"(0.05, 0.0, 0.0, 0.0, 0.05, 0.0, 0.0, 0.0, 0.05)",-0.06491773575544357,-0.23625798523426056,0.8524443507194519,"(0.1, 0.0, 0.0, 0.0, 0.1, 0.0, 0.0, 0.0, 0.1)",-3.576937437057495,0.3256114423274994,9.821015357971191,"(0.5, 0.0, 0.0, 0.0, 0.5, 0.0, 0.0, 0.0, 0.5)"
2024/07/05/10:38:05.886835,6899,1720190285,879732295,imu_link,0.002630299888551235,-0.038765884935855865,-0.9973574876785278,0.06138665974140167,"(0.05, 0.0, 0.0, 0.0, 0.05, 0.0, 0.0, 0.0, 0.05)",0.1383492648601532,0.1394134908914566,0.767306387424469,"(0.1, 0.0, 0.0, 0.0, 0.1, 0.0, 0.0, 0.0, 0.1)",1.6136919260025024,0.2968810200691223,7.680599212646484,"(0.5, 0.0, 0.0, 0.0, 0.5, 0.0, 0.0, 0.0, 0.5)"
2024/07/05/10:38:05.990048,6900,1720190285,982732295,imu_link,0.00392213836312294,-0.04049019142985344,-0.9942032694816589,0.09952393174171448,"(0.05, 0.0, 0.0, 0.0, 0.05, 0.0, 0.0, 0.0, 0.05)",0.03937632963061333,0.05321125686168671,0.7162235379219055,"(0.1, 0.0, 0.0, 0.0, 0.1, 0.0, 0.0, 0.0, 0.1)",4.802768707275391,-0.9768342971801758,11.860875129699707,"(0.5, 0.0, 0.0, 0.0, 0.5, 0.0, 0.0, 0.0, 0.5)"
2024/07/05/10:38:06.080569,6901,1720190286,65732295,imu_link,0.006745012477040291,-0.03603365644812584,-0.9895452857017517,0.13948564231395721,"(0.05, 0.0, 0.0, 0.0, 0.05, 0.0, 0.0, 0.0, 0.05)",0.042569007724523544,0.002128450432792306,0.7939119338989258,"(0.1, 0.0, 0.0, 0.0, 0.1, 0.0, 0.0, 0.0, 0.1)",4.309563159942627,1.6376339197158813,9.026140213012695,"(0.5, 0.0, 0.0, 0.0, 0.5, 0.0, 0.0, 0.0, 0.5)"
2024/07/05/10:38:06.178105,6902,1720190286,168732295,imu_link,0.003358026035130024,-0.034111104905605316,-0.9830080270767212,0.18033412098884583,"(0.05, 0.0, 0.0, 0.0, 0.05, 0.0, 0.0, 0.0, 0.05)",-0.03831210732460022,0.028734078630805016,0.7875266075134277,"(0.1, 0.0, 0.0, 0.0, 0.1, 0.0, 0.0, 0.0, 0.1)",-0.3926490843296051,4.707000732421875,9.911994934082031,"(0.5, 0.0, 0.0, 0.0, 0.5, 0.0, 0.0, 0.0, 0.5)"
2024/07/05/10:38:06.282537,6903,1720190286,271732295,imu_link,-0.0026319753378629684,-0.03504694998264313,-0.9745111465454102,0.22156892716884613,"(0.05, 0.0, 0.0, 0.0, 0.05, 0.0, 0.0, 0.0, 0.05)",0.04150478169322014,0.21071657538414001,0.8386094570159912,"(0.1, 0.0, 0.0, 0.0, 0.1, 0.0, 0.0, 0.0, 0.1)",4.491522312164307,-0.5267243981361389,12.392388343811035,"(0.5, 0.0, 0.0, 0.0, 0.5, 0.0, 0.0, 0.0, 0.5)"
2024/07/05/10:38:06.387090,6904,1720190286,374732295,imu_link,-0.0035243630409240723,-0.03536480292677879,-0.9644901156425476,0.2617168426513672,"(0.05, 0.0, 0.0, 0.0, 0.05, 0.0, 0.0, 0.0, 0.05)",-0.056403931230306625,-0.03511942923069,0.85882967710495,"(0.1, 0.0, 0.0, 0.0, 0.1, 0.0, 0.0, 0.0, 0.1)",1.7286136150360107,2.8634653091430664,9.390059471130371,"(0.5, 0.0, 0.0, 0.0, 0.5, 0.0, 0.0, 0.0, 0.5)"
2024/07/05/10:38:06.488856,6905,1720190286,477732295,imu_link,-0.0022781314328312874,-0.0316513329744339,-0.9529663920402527,0.30141016840934753,"(0.05, 0.0, 0.0, 0.0, 0.05, 0.0, 0.0, 0.0, 0.05)",-0.06385350972414017,0.051082808524370193,0.8545728325843811,"(0.1, 0.0, 0.0, 0.0, 0.1, 0.0, 0.0, 0.0, 0.1)",-4.132391929626465,1.292868971824646,12.00452709197998,"(0.5, 0.0, 0.0, 0.0, 0.5, 0.0, 0.0, 0.0, 0.5)"
2024/07/05/10:38:06.590503,6906,1720190286,580732295,imu_link,0.0007701627910137177,-0.025805098935961723,-0.9403447508811951,0.3392421007156372,"(0.05, 0.0, 0.0, 0.0, 0.05, 0.0, 0.0, 0.0, 0.05)",-0.07449576258659363,0.051082808524370193,0.7800770401954651,"(0.1, 0.0, 0.0, 0.0, 0.1, 0.0, 0.0, 0.0, 0.1)",-7.987056732177734,-0.608127236366272,10.290278434753418,"(0.5, 0.0, 0.0, 0.0, 0.5, 0.0, 0.0, 0.0, 0.5)"
2024/07/05/10:38:06.693225,6907,1720190286,683732295,imu_link,0.007034126669168472,-0.020912660285830498,-0.9260106682777405,0.3768519163131714,"(0.05, 0.0, 0.0, 0.0, 0.05, 0.0, 0.0, 0.0, 0.05)",0.02234872803092003,0.008513801731169224,0.8322240710258484,"(0.1, 0.0, 0.0, 0.0, 0.1, 0.0, 0.0, 0.0, 0.1)",1.1204863786697388,1.9584569931030273,9.849745750427246,"(0.5, 0.0, 0.0, 0.0, 0.5, 0.0, 0.0, 0.0, 0.5)"
2024/07/05/10:38:06.774048,6908,1720190286,766732295,imu_link,0.002920311875641346,-0.013755595311522484,-0.9097463488578796,0.41492635011672974,"(0.05, 0.0, 0.0, 0.0, 0.05, 0.0, 0.0, 0.0, 0.05)",-0.14367039501667023,0.15111997723579407,0.9120410084724426,"(0.1, 0.0, 0.0, 0.0, 0.1, 0.0, 0.0, 0.0, 0.1)",1.9823989868164062,2.121262788772583,9.045293807983398,"(0.5, 0.0, 0.0, 0.0, 0.5, 0.0, 0.0, 0.0, 0.5)"
2024/07/05/10:38:06.876894,6909,1720190286,869732295,imu_link,0.0036559514701366425,-0.019801065325737,-0.8841307759284973,0.4668053984642029,"(0.05, 0.0, 0.0, 0.0, 0.05, 0.0, 0.0, 0.0, 0.05)",0.0521470308303833,-0.06811041384935379,1.3941349983215332,"(0.1, 0.0, 0.0, 0.0, 0.1, 0.0, 0.0, 0.0, 0.1)",-0.2585737705230713,2.513911724090576,11.12346076965332,"(0.5, 0.0, 0.0, 0.0, 0.5, 0.0, 0.0, 0.0, 0.5)"
2024/07/05/10:38:06.982254,6910,1720190286,972732295,imu_link,0.00728239119052887,-0.013965602964162827,-0.8446468710899353,0.5350921154022217,"(0.05, 0.0, 0.0, 0.0, 0.05, 0.0, 0.0, 0.0, 0.05)",-0.02234872803092003,0.0691746324300766,1.792155146598816,"(0.1, 0.0, 0.0, 0.0, 0.1, 0.0, 0.0, 0.0, 0.1)",-5.118803024291992,0.9864110946655273,8.33182144165039,"(0.5, 0.0, 0.0, 0.0, 0.5, 0.0, 0.0, 0.0, 0.5)"
2024/07/05/10:38:07.083271,6911,1720190287,75732295,imu_link,0.011591076850891113,-0.009327251464128494,-0.7949838638305664,0.6064480543136597,"(0.05, 0.0, 0.0, 0.0, 0.05, 0.0, 0.0, 0.0, 0.05)",0.025541404262185097,-0.09578026086091995,1.4590526819229126,"(0.1, 0.0, 0.0, 0.0, 0.1, 0.0, 0.0, 0.0, 0.1)",-3.4763808250427246,0.8571242094039917,8.71489429473877,"(0.5, 0.0, 0.0, 0.0, 0.5, 0.0, 0.0, 0.0, 0.5)"
2024/07/05/10:38:07.186203,6912,1720190287,178732295,imu_link,0.02100086212158203,-0.002512771636247635,-0.7754542231559753,0.6310494542121887,"(0.05, 0.0, 0.0, 0.0, 0.05, 0.0, 0.0, 0.0, 0.05)",0.021284503862261772,-0.030862528830766678,0.09790871292352676,"(0.1, 0.0, 0.0, 0.0, 0.1, 0.0, 0.0, 0.0, 0.1)",-2.1978771686553955,-0.5746083855628967,8.983044624328613,"(0.5, 0.0, 0.0, 0.0, 0.5, 0.0, 0.0, 0.0, 0.5)"
2024/07/05/10:38:07.288953,6913,1720190287,281732295,imu_link,0.015984587371349335,-0.005013037472963333,-0.7770138382911682,0.6292605400085449,"(0.05, 0.0, 0.0, 0.0, 0.05, 0.0, 0.0, 0.0, 0.05)",-0.017027603462338448,-0.04363323003053665,-0.051082808524370193,"(0.1, 0.0, 0.0, 0.0, 0.1, 0.0, 0.0, 0.0, 0.1)",0.9241618514060974,-0.20111294090747833,9.418789863586426,"(0.5, 0.0, 0.0, 0.0, 0.5, 0.0, 0.0, 0.0, 0.5)"
2024/07/05/10:38:07.372194,6914,1720190287,364732295,imu_link,0.014903404749929905,-0.00416336115449667,-0.7782360315322876,0.6277812123298645,"(0.05, 0.0, 0.0, 0.0, 0.05, 0.0, 0.0, 0.0, 0.05)",0.001064225216396153,-0.03831210732460022,-0.031926754862070084,"(0.1, 0.0, 0.0, 0.0, 0.1, 0.0, 0.0, 0.0, 0.1)",-0.40701428055763245,-0.33039984107017517,9.38048267364502,"(0.5, 0.0, 0.0, 0.0, 0.5, 0.0, 0.0, 0.0, 0.5)"
2024/07/05/10:38:07.475082,6915,1720190287,476323368,imu_link,0.013076644390821457,-0.0039028478786349297,-0.7786732912063599,0.627281129360199,"(0.05, 0.0, 0.0, 0.0, 0.05, 0.0, 0.0, 0.0, 0.05)",0.004256900865584612,0.001064225216396153,-0.002128450432792306,"(0.1, 0.0, 0.0, 0.0, 0.1, 0.0, 0.0, 0.0, 0.1)",0.1149216815829277,-0.2059013396501541,9.533711433410645,"(0.5, 0.0, 0.0, 0.0, 0.5, 0.0, 0.0, 0.0, 0.5)"
2024/07/05/10:38:07.577755,6916,1720190287,579323368,imu_link,0.01160628255456686,-0.003473229706287384,-0.7788164615631104,0.6271349191665649,"(0.05, 0.0, 0.0, 0.0, 0.05, 0.0, 0.0, 0.0, 0.05)",-0.001064225216396153,-0.002128450432792306,-0.005321125965565443,"(0.1, 0.0, 0.0, 0.0, 0.1, 0.0, 0.0, 0.0, 0.1)",0.10534487664699554,-0.14365209639072418,9.481039047241211,"(0.5, 0.0, 0.0, 0.0, 0.5, 0.0, 0.0, 0.0, 0.5)"
2024/07/05/10:38:07.680986,6917,1720190287,682323368,imu_link,0.007523822598159313,-0.004897013306617737,-0.7813453674316406,0.6240343451499939,"(0.05, 0.0, 0.0, 0.0, 0.05, 0.0, 0.0, 0.0, 0.05)",0.001064225216396153,0.02447717823088169,-0.012770702131092548,"(0.1, 0.0, 0.0, 0.0, 0.1, 0.0, 0.0, 0.0, 0.1)",1.3742717504501343,-0.9816226959228516,9.849745750427246,"(0.5, 0.0, 0.0, 0.0, 0.5, 0.0, 0.0, 0.0, 0.5)"
2024/07/05/10:38:07.783738,6918,1720190287,785323368,imu_link,-0.003524051047861576,-0.011525824666023254,-0.7834218740463257,0.6213734149932861,"(0.05, 0.0, 0.0, 0.0, 0.05, 0.0, 0.0, 0.0, 0.05)",0.017027603462338448,-0.025541404262185097,-0.026605628430843353,"(0.1, 0.0, 0.0, 0.0, 0.1, 0.0, 0.0, 0.0, 0.1)",1.2880805730819702,-1.3072341680526733,10.271124839782715,"(0.5, 0.0, 0.0, 0.0, 0.5, 0.0, 0.0, 0.0, 0.5)"
2024/07/05/10:38:07.886765,6919,1720190287,888323368,imu_link,-0.009343658573925495,-0.013655046932399273,-0.7827353477478027,0.6221347451210022,"(0.05, 0.0, 0.0, 0.0, 0.05, 0.0, 0.0, 0.0, 0.05)",0.011706477031111717,0.07875265926122665,0.07768843322992325,"(0.1, 0.0, 0.0, 0.0, 0.1, 0.0, 0.0, 0.0, 0.1)",0.6799532771110535,0.090979665517807,8.542511940002441,"(0.5, 0.0, 0.0, 0.0, 0.5, 0.0, 0.0, 0.0, 0.5)"
2024/07/05/10:38:07.993029,6920,1720190287,991323368,imu_link,-0.005792967043817043,-0.007627514190971851,-0.7809234857559204,0.6245532035827637,"(0.05, 0.0, 0.0, 0.0, 0.05, 0.0, 0.0, 0.0, 0.05)",-0.04895435646176338,0.037247881293296814,0.031926754862070084,"(0.1, 0.0, 0.0, 0.0, 0.1, 0.0, 0.0, 0.0, 0.1)",-9.30386734008789,-2.0829553604125977,7.800309181213379,"(0.5, 0.0, 0.0, 0.0, 0.5, 0.0, 0.0, 0.0, 0.5)"
2024/07/05/10:38:08.072948,6921,1720190288,74323368,imu_link,-0.007753756828606129,-0.0020571155473589897,-0.7799151539802551,0.6258338093757629,"(0.05, 0.0, 0.0, 0.0, 0.05, 0.0, 0.0, 0.0, 0.05)",-0.05746815726161003,-0.0872664600610733,0.005321125965565443,"(0.1, 0.0, 0.0, 0.0, 0.1, 0.0, 0.0, 0.0, 0.1)",0.014365210197865963,-1.5610195398330688,9.75397777557373,"(0.5, 0.0, 0.0, 0.0, 0.5, 0.0, 0.0, 0.0, 0.5)"
2024/07/05/10:38:08.176354,6922,1720190288,177323368,imu_link,-0.008182784542441368,-0.0013093873858451843,-0.7790536880493164,0.6269024610519409,"(0.05, 0.0, 0.0, 0.0, 0.05, 0.0, 0.0, 0.0, 0.05)",-0.07555998861789703,-0.12345011532306671,0.002128450432792306,"(0.1, 0.0, 0.0, 0.0, 0.1, 0.0, 0.0, 0.0, 0.1)",0.10055647045373917,0.49799394607543945,10.524910926818848,"(0.5, 0.0, 0.0, 0.0, 0.5, 0.0, 0.0, 0.0, 0.5)"
2024/07/05/10:38:08.280002,6923,1720190288,280323368,imu_link,-0.006371907889842987,0.00112178735435009,-0.7779678702354431,0.6282708048820496,"(0.05, 0.0, 0.0, 0.0, 0.05, 0.0, 0.0, 0.0, 0.05)",0.04150478169322014,0.11493631452322006,0.04895435646176338,"(0.1, 0.0, 0.0, 0.0, 0.1, 0.0, 0.0, 0.0, 0.1)",2.145204782485962,1.9728221893310547,10.089165687561035,"(0.5, 0.0, 0.0, 0.0, 0.5, 0.0, 0.0, 0.0, 0.5)"
2024/07/05/10:38:08.386987,6924,1720190288,383323368,imu_link,-0.007414619438350201,0.0017841877415776253,-0.7769365310668945,0.6295327544212341,"(0.05, 0.0, 0.0, 0.0, 0.05, 0.0, 0.0, 0.0, 0.05)",0.1383492648601532,0.13196392357349396,0.028734078630805016,"(0.1, 0.0, 0.0, 0.0, 0.1, 0.0, 0.0, 0.0, 0.1)",1.699883222579956,-2.3942017555236816,9.442731857299805,"(0.5, 0.0, 0.0, 0.0, 0.5, 0.0, 0.0, 0.0, 0.5)"
2024/07/05/10:38:08.490780,6925,1720190288,486323368,imu_link,-0.010314428247511387,0.0048194946721196175,-0.7768145203590393,0.6296265721321106,"(0.05, 0.0, 0.0, 0.0, 0.05, 0.0, 0.0, 0.0, 0.05)",0.037247881293296814,0.01489915233105421,0.025541404262185097,"(0.1, 0.0, 0.0, 0.0, 0.1, 0.0, 0.0, 0.0, 0.1)",0.19632454216480255,-1.2401964664459229,10.223240852355957,"(0.5, 0.0, 0.0, 0.0, 0.5, 0.0, 0.0, 0.0, 0.5)"
2024/07/05/10:38:08.593395,6926,1720190288,589323368,imu_link,-0.009085256606340408,0.004179592244327068,-0.7760406732559204,0.6306036114692688,"(0.05, 0.0, 0.0, 0.0, 0.05, 0.0, 0.0, 0.0, 0.05)",-0.01383492723107338,-0.004256900865584612,-0.010642251931130886,"(0.1, 0.0, 0.0, 0.0, 0.1, 0.0, 0.0, 0.0, 0.1)",1.3646949529647827,-2.6192567348480225,9.672574996948242,"(0.5, 0.0, 0.0, 0.0, 0.5, 0.0, 0.0, 0.0, 0.5)"
2024/07/05/10:38:08.671327,6927,1720190288,672323368,imu_link,-0.011208631098270416,0.0017645945772528648,-0.7758010625839233,0.6308755874633789,"(0.05, 0.0, 0.0, 0.0, 0.05, 0.0, 0.0, 0.0, 0.05)",0.007449576165527105,-0.1372850388288498,0.007449576165527105,"(0.1, 0.0, 0.0, 0.0, 0.1, 0.0, 0.0, 0.0, 0.1)",1.2258312702178955,-0.19153612852096558,9.23682975769043,"(0.5, 0.0, 0.0, 0.0, 0.5, 0.0, 0.0, 0.0, 0.5)"
2024/07/05/10:38:08.781453,6928,1720190288,775323368,imu_link,-0.007850883528590202,0.0020591123029589653,-0.775341272354126,0.6314903497695923,"(0.05, 0.0, 0.0, 0.0, 0.05, 0.0, 0.0, 0.0, 0.05)",-0.02979830466210842,-0.08833068609237671,0.002128450432792306,"(0.1, 0.0, 0.0, 0.0, 0.1, 0.0, 0.0, 0.0, 0.1)",-1.2497732639312744,1.072602391242981,10.884040832519531,"(0.5, 0.0, 0.0, 0.0, 0.5, 0.0, 0.0, 0.0, 0.5)"
2024/07/05/10:38:08.883317,6929,1720190288,878323368,imu_link,-0.0070567866787314415,0.0005797473713755608,-0.7752685546875,0.6315920352935791,"(0.05, 0.0, 0.0, 0.0, 0.05, 0.0, 0.0, 0.0, 0.05)",0.028734078630805016,0.02766985446214676,-0.01383492723107338,"(0.1, 0.0, 0.0, 0.0, 0.1, 0.0, 0.0, 0.0, 0.1)",-1.1635819673538208,0.5267243981361389,8.413225173950195,"(0.5, 0.0, 0.0, 0.0, 0.5, 0.0, 0.0, 0.0, 0.5)"
2024/07/05/10:38:08.986550,6930,1720190288,981323368,imu_link,-0.009270871058106422,0.0046503907069563866,-0.7753021717071533,0.6315053701400757,"(0.05, 0.0, 0.0, 0.0, 0.05, 0.0, 0.0, 0.0, 0.05)",0.04576168209314346,0.02447717823088169,0.007449576165527105,"(0.1, 0.0, 0.0, 0.0, 0.1, 0.0, 0.0, 0.0, 0.1)",-1.6424223184585571,-0.8762778043746948,10.769119262695312,"(0.5, 0.0, 0.0, 0.0, 0.5, 0.0, 0.0, 0.0, 0.5)"
2024/07/05/10:38:09.083239,6931,1720190289,84323368,imu_link,-0.005185665562748909,0.003492802381515503,-0.7752734422683716,0.6315947771072388,"(0.05, 0.0, 0.0, 0.0, 0.05, 0.0, 0.0, 0.0, 0.05)",-0.020220277830958366,0.13089969754219055,-0.03618365526199341,"(0.1, 0.0, 0.0, 0.0, 0.1, 0.0, 0.0, 0.0, 0.1)",0.19632454216480255,0.29209262132644653,10.122684478759766,"(0.5, 0.0, 0.0, 0.0, 0.5, 0.0, 0.0, 0.0, 0.5)"
2024/07/05/10:38:09.186329,6932,1720190289,187323368,imu_link,-0.007794803008437157,0.0006475634872913361,-0.7745493054389954,0.6324651837348938,"(0.05, 0.0, 0.0, 0.0, 0.05, 0.0, 0.0, 0.0, 0.05)",0.0862022414803505,0.051082808524370193,-0.006385351065546274,"(0.1, 0.0, 0.0, 0.0, 0.1, 0.0, 0.0, 0.0, 0.1)",0.6560112833976746,0.6272808313369751,9.313444137573242,"(0.5, 0.0, 0.0, 0.0, 0.5, 0.0, 0.0, 0.0, 0.5)"
2024/07/05/10:38:09.289246,6933,1720190289,290323368,imu_link,-0.008852517232298851,-0.0029418421909213066,-0.7743709087371826,0.6326631307601929,"(0.05, 0.0, 0.0, 0.0, 0.05, 0.0, 0.0, 0.0, 0.05)",-0.09365181624889374,-0.09897294640541077,0.001064225216396153,"(0.1, 0.0, 0.0, 0.0, 0.1, 0.0, 0.0, 0.0, 0.1)",0.2106897532939911,-0.09576806426048279,10.35252857208252,"(0.5, 0.0, 0.0, 0.0, 0.5, 0.0, 0.0, 0.0, 0.5)"
2024/07/05/10:38:09.388943,6934,1720190289,373323368,imu_link,-0.006019610911607742,-0.004465831443667412,-0.774241030216217,0.632846474647522,"(0.05, 0.0, 0.0, 0.0, 0.05, 0.0, 0.0, 0.0, 0.05)",-0.1372850388288498,0.017027603462338448,-0.02766985446214676,"(0.1, 0.0, 0.0, 0.0, 0.1, 0.0, 0.0, 0.0, 0.1)",-4.371812343597412,0.11971008777618408,9.706093788146973,"(0.5, 0.0, 0.0, 0.0, 0.5, 0.0, 0.0, 0.0, 0.5)"
2024/07/05/10:38:09.477874,6935,1720190289,476323368,imu_link,-0.0062141502276062965,-0.0028345398604869843,-0.7739943265914917,0.6331557035446167,"(0.05, 0.0, 0.0, 0.0, 0.05, 0.0, 0.0, 0.0, 0.05)",-0.08939491212368011,0.011706477031111717,0.007449576165527105,"(0.1, 0.0, 0.0, 0.0, 0.1, 0.0, 0.0, 0.0, 0.1)",6.4595561027526855,3.0885202884674072,9.275136947631836,"(0.5, 0.0, 0.0, 0.0, 0.5, 0.0, 0.0, 0.0, 0.5)"
2024/07/05/10:38:09.580598,6936,1720190289,579323368,imu_link,-0.00540528167039156,0.0004291897639632225,-0.7739282846450806,0.6332500576972961,"(0.05, 0.0, 0.0, 0.0, 0.05, 0.0, 0.0, 0.0, 0.05)",0.018091827630996704,0.001064225216396153,0.05746815726161003,"(0.1, 0.0, 0.0, 0.0, 0.1, 0.0, 0.0, 0.0, 0.1)",-0.6560112833976746,-0.751779317855835,11.176133155822754,"(0.5, 0.0, 0.0, 0.0, 0.5, 0.0, 0.0, 0.0, 0.5)"
2024/07/05/10:38:09.683034,6937,1720190289,682323368,imu_link,-0.004828058183193207,-0.0012348899617791176,-0.7732899188995361,0.6340330243110657,"(0.05, 0.0, 0.0, 0.0, 0.05, 0.0, 0.0, 0.0, 0.05)",0.07662421464920044,0.028734078630805016,0.010642251931130886,"(0.1, 0.0, 0.0, 0.0, 0.1, 0.0, 0.0, 0.0, 0.1)",-0.3447650372982025,-0.05746084079146385,9.121908187866211,"(0.5, 0.0, 0.0, 0.0, 0.5, 0.0, 0.0, 0.0, 0.5)"
2024/07/05/10:38:09.790741,6938,1720190289,785323368,imu_link,-0.011391517706215382,-0.006587708368897438,-0.7724342346191406,0.6349583864212036,"(0.05, 0.0, 0.0, 0.0, 0.05, 0.0, 0.0, 0.0, 0.05)",0.06598196178674698,-0.05746815726161003,0.058532387018203735,"(0.1, 0.0, 0.0, 0.0, 0.1, 0.0, 0.0, 0.0, 0.1)",0.1628057211637497,-0.4596867263317108,10.409989356994629,"(0.5, 0.0, 0.0, 0.0, 0.5, 0.0, 0.0, 0.0, 0.5)"
2024/07/05/10:38:09.892498,6939,1720190289,888323368,imu_link,-0.015394289046525955,-0.008579060435295105,-0.7725445628166199,0.6347159147262573,"(0.05, 0.0, 0.0, 0.0, 0.05, 0.0, 0.0, 0.0, 0.05)",-0.02447717823088169,0.020220277830958366,-0.04044055566191673,"(0.1, 0.0, 0.0, 0.0, 0.1, 0.0, 0.0, 0.0, 0.1)",-1.5179238319396973,-0.4596867263317108,8.78193187713623,"(0.5, 0.0, 0.0, 0.0, 0.5, 0.0, 0.0, 0.0, 0.5)"
2024/07/05/10:38:09.969892,6940,1720190289,964258642,imu_link,-0.012963825836777687,-0.006938472390174866,-0.7729498744010925,0.634296715259552,"(0.05, 0.0, 0.0, 0.0, 0.05, 0.0, 0.0, 0.0, 0.05)",0.0,0.18411095440387726,-0.017027603462338448,"(0.1, 0.0, 0.0, 0.0, 0.1, 0.0, 0.0, 0.0, 0.1)",0.5123591423034668,-2.9496564865112305,8.38449478149414,"(0.5, 0.0, 0.0, 0.0, 0.5, 0.0, 0.0, 0.0, 0.5)"
2024/07/05/10:38:10.072556,6941,1720190290,67258642,imu_link,-0.009529090486466885,-0.006049802526831627,-0.7727143168449402,0.6346535682678223,"(0.05, 0.0, 0.0, 0.0, 0.05, 0.0, 0.0, 0.0, 0.05)",0.06598196178674698,-0.10642251372337341,0.020220277830958366,"(0.1, 0.0, 0.0, 0.0, 0.1, 0.0, 0.0, 0.0, 0.1)",-1.6136919260025024,-1.9728221893310547,9.026140213012695,"(0.5, 0.0, 0.0, 0.0, 0.5, 0.0, 0.0, 0.0, 0.5)"
2024/07/05/10:38:10.176276,6942,1720190290,170258642,imu_link,-0.005402521230280399,-0.0028445692732930183,-0.7724457383155823,0.6350513696670532,"(0.05, 0.0, 0.0, 0.0, 0.05, 0.0, 0.0, 0.0, 0.05)",-0.002128450432792306,-0.11919321864843369,0.025541404262185097,"(0.1, 0.0, 0.0, 0.0, 0.1, 0.0, 0.0, 0.0, 0.1)",-0.31124621629714966,0.6224924325942993,7.690176010131836,"(0.5, 0.0, 0.0, 0.0, 0.5, 0.0, 0.0, 0.0, 0.5)"
2024/07/05/10:38:10.279547,6943,1720190290,273258642,imu_link,-0.0063911546021699905,-0.008675284683704376,-0.7714892029762268,0.6361511945724487,"(0.05, 0.0, 0.0, 0.0, 0.05, 0.0, 0.0, 0.0, 0.05)",0.07023885846138,-0.07343153655529022,0.003192675532773137,"(0.1, 0.0, 0.0, 0.0, 0.1, 0.0, 0.0, 0.0, 0.1)",-1.2545616626739502,0.5937620401382446,9.318233489990234,"(0.5, 0.0, 0.0, 0.0, 0.5, 0.0, 0.0, 0.0, 0.5)"
2024/07/05/10:38:10.383221,6944,1720190290,376258642,imu_link,-0.010117941536009312,-0.010584739036858082,-0.7717700600624084,0.6357331275939941,"(0.05, 0.0, 0.0, 0.0, 0.05, 0.0, 0.0, 0.0, 0.05)",0.03831210732460022,-0.06491773575544357,0.020220277830958366,"(0.1, 0.0, 0.0, 0.0, 0.1, 0.0, 0.0, 0.0, 0.1)",-0.871489405632019,1.3503297567367554,9.500192642211914,"(0.5, 0.0, 0.0, 0.0, 0.5, 0.0, 0.0, 0.0, 0.5)"
2024/07/05/10:38:10.485372,6945,1720190290,479258642,imu_link,-0.011826366186141968,-0.012053685262799263,-0.7716959118843079,0.6357674598693848,"(0.05, 0.0, 0.0, 0.0, 0.05, 0.0, 0.0, 0.0, 0.05)",-0.010642251931130886,0.058532387018203735,-0.003192675532773137,"(0.1, 0.0, 0.0, 0.0, 0.1, 0.0, 0.0, 0.0, 0.1)",5.07570743560791,1.6089035272598267,7.86734676361084,"(0.5, 0.0, 0.0, 0.0, 0.5, 0.0, 0.0, 0.0, 0.5)"
2024/07/05/10:38:10.589985,6946,1720190290,582258642,imu_link,-0.014155724085867405,-0.012990474700927734,-0.7716308236122131,0.635780394077301,"(0.05, 0.0, 0.0, 0.0, 0.05, 0.0, 0.0, 0.0, 0.05)",0.03299098089337349,0.06491773575544357,0.031926754862070084,"(0.1, 0.0, 0.0, 0.0, 0.1, 0.0, 0.0, 0.0, 0.1)",0.9528923034667969,-2.5905263423919678,9.720458984375,"(0.5, 0.0, 0.0, 0.0, 0.5, 0.0, 0.0, 0.0, 0.5)"
2024/07/05/10:38:10.671354,6947,1720190290,665258642,imu_link,-0.00903902668505907,-0.01186006236821413,-0.7713759541511536,0.6362050175666809,"(0.05, 0.0, 0.0, 0.0, 0.05, 0.0, 0.0, 0.0, 0.05)",-0.07875265926122665,-0.06491773575544357,-0.009578026831150055,"(0.1, 0.0, 0.0, 0.0, 0.1, 0.0, 0.0, 0.0, 0.1)",0.2585737705230713,2.8155810832977295,9.217676162719727,"(0.5, 0.0, 0.0, 0.0, 0.5, 0.0, 0.0, 0.0, 0.5)"
2024/07/05/10:38:10.773872,6948,1720190290,768258642,imu_link,-0.009523192420601845,-0.012872443534433842,-0.7711907029151917,0.6364028453826904,"(0.05, 0.0, 0.0, 0.0, 0.05, 0.0, 0.0, 0.0, 0.05)",-0.09152336418628693,-0.05533970892429352,-0.003192675532773137,"(0.1, 0.0, 0.0, 0.0, 0.1, 0.0, 0.0, 0.0, 0.1)",-0.751779317855835,-1.5753847360610962,10.247182846069336,"(0.5, 0.0, 0.0, 0.0, 0.5, 0.0, 0.0, 0.0, 0.5)"
2024/07/05/10:38:10.876997,6949,1720190290,871258642,imu_link,-0.009879483841359615,-0.01204137783497572,-0.7710947394371033,0.6365299224853516,"(0.05, 0.0, 0.0, 0.0, 0.05, 0.0, 0.0, 0.0, 0.05)",-0.1042940616607666,-0.037247881293296814,0.01915605366230011,"(0.1, 0.0, 0.0, 0.0, 0.1, 0.0, 0.0, 0.0, 0.1)",0.2537853717803955,1.6615760326385498,9.75397777557373,"(0.5, 0.0, 0.0, 0.0, 0.5, 0.0, 0.0, 0.0, 0.5)"
2024/07/05/10:38:10.979867,6950,1720190290,974258642,imu_link,-0.012666463851928711,-0.009857919998466969,-0.7714314460754395,0.6361100077629089,"(0.05, 0.0, 0.0, 0.0, 0.05, 0.0, 0.0, 0.0, 0.05)",-0.021284503862261772,0.028734078630805016,0.01489915233105421,"(0.1, 0.0, 0.0, 0.0, 0.1, 0.0, 0.0, 0.0, 0.1)",0.3878606855869293,2.0925323963165283,10.323798179626465,"(0.5, 0.0, 0.0, 0.0, 0.5, 0.0, 0.0, 0.0, 0.5)"
2024/07/05/10:38:11.082489,6951,1720190291,77258642,imu_link,-0.010327216237783432,-0.009381468407809734,-0.7707947492599487,0.6369307637214661,"(0.05, 0.0, 0.0, 0.0, 0.05, 0.0, 0.0, 0.0, 0.05)",0.09684448689222336,0.2969188094139099,-0.006385351065546274,"(0.1, 0.0, 0.0, 0.0, 0.1, 0.0, 0.0, 0.0, 0.1)",2.3750481605529785,-0.033518824726343155,8.236053466796875,"(0.5, 0.0, 0.0, 0.0, 0.5, 0.0, 0.0, 0.0, 0.5)"
2024/07/05/10:38:11.186074,6952,1720190291,180258642,imu_link,-0.006480495445430279,-0.00810688454657793,-0.7704190015792847,0.6374533772468567,"(0.05, 0.0, 0.0, 0.0, 0.05, 0.0, 0.0, 0.0, 0.05)",0.15431265532970428,0.06704618781805038,0.07023885846138,"(0.1, 0.0, 0.0, 0.0, 0.1, 0.0, 0.0, 0.0, 0.1)",0.8667010068893433,1.235408067703247,10.08437728881836,"(0.5, 0.0, 0.0, 0.0, 0.5, 0.0, 0.0, 0.0, 0.5)"
2024/07/05/10:38:11.269803,6953,1720190291,263258642,imu_link,-0.003071625716984272,-0.008945929817855358,-0.7703832983970642,0.6375108361244202,"(0.05, 0.0, 0.0, 0.0, 0.05, 0.0, 0.0, 0.0, 0.05)",-0.058532387018203735,0.05001858249306679,-0.03831210732460022,"(0.1, 0.0, 0.0, 0.0, 0.1, 0.0, 0.0, 0.0, 0.1)",2.3271639347076416,-1.4844050407409668,8.063671112060547,"(0.5, 0.0, 0.0, 0.0, 0.5, 0.0, 0.0, 0.0, 0.5)"
2024/07/05/10:38:11.373249,6954,1720190291,366258642,imu_link,-0.00433697272092104,-0.006529186852276325,-0.7708091735839844,0.6370179057121277,"(0.05, 0.0, 0.0, 0.0, 0.05, 0.0, 0.0, 0.0, 0.05)",0.03618365526199341,0.034055206924676895,0.03299098089337349,"(0.1, 0.0, 0.0, 0.0, 0.1, 0.0, 0.0, 0.0, 0.1)",1.0342950820922852,0.3734954595565796,7.723694801330566,"(0.5, 0.0, 0.0, 0.0, 0.5, 0.0, 0.0, 0.0, 0.5)"
2024/07/05/10:38:11.475387,6955,1720190291,469258642,imu_link,-0.004275207407772541,-0.0066616591066122055,-0.7701489925384521,0.6378149390220642,"(0.05, 0.0, 0.0, 0.0, 0.05, 0.0, 0.0, 0.0, 0.05)",0.04895435646176338,-0.23945066332817078,-0.015963377431035042,"(0.1, 0.0, 0.0, 0.0, 0.1, 0.0, 0.0, 0.0, 0.1)",0.8906430602073669,-2.169146776199341,9.84495735168457,"(0.5, 0.0, 0.0, 0.0, 0.5, 0.0, 0.0, 0.0, 0.5)"
2024/07/05/10:38:11.579644,6956,1720190291,572258642,imu_link,-0.007653755135834217,-0.006327076815068722,-0.7701133489608765,0.6378297805786133,"(0.05, 0.0, 0.0, 0.0, 0.05, 0.0, 0.0, 0.0, 0.05)",0.02234872803092003,-0.14367039501667023,-0.01383492723107338,"(0.1, 0.0, 0.0, 0.0, 0.1, 0.0, 0.0, 0.0, 0.1)",-1.1348515748977661,0.023942016065120697,8.121131896972656,"(0.5, 0.0, 0.0, 0.0, 0.5, 0.0, 0.0, 0.0, 0.5)"
2024/07/05/10:38:11.680893,6957,1720190291,675258642,imu_link,-0.00770789198577404,-0.011781231500208378,-0.7699615359306335,0.6379349827766418,"(0.05, 0.0, 0.0, 0.0, 0.05, 0.0, 0.0, 0.0, 0.05)",0.21178081631660461,0.11174364387989044,-0.05001858249306679,"(0.1, 0.0, 0.0, 0.0, 0.1, 0.0, 0.0, 0.0, 0.1)",2.734178304672241,1.6519991159439087,10.074800491333008,"(0.5, 0.0, 0.0, 0.0, 0.5, 0.0, 0.0, 0.0, 0.5)"
2024/07/05/10:38:11.784312,6958,1720190291,778258642,imu_link,-0.007631871849298477,-0.014814193360507488,-0.7708925604820251,0.6367471814155579,"(0.05, 0.0, 0.0, 0.0, 0.05, 0.0, 0.0, 0.0, 0.05)",-0.005321125965565443,-0.10855096578598022,-0.026605628430843353,"(0.1, 0.0, 0.0, 0.0, 0.1, 0.0, 0.0, 0.0, 0.1)",0.26336219906806946,1.2258312702178955,10.156203269958496,"(0.5, 0.0, 0.0, 0.0, 0.5, 0.0, 0.0, 0.0, 0.5)"
2024/07/05/10:38:11.889207,6959,1720190291,881258642,imu_link,-0.01112277340143919,-0.019122138619422913,-0.7703385949134827,0.6372511982917786,"(0.05, 0.0, 0.0, 0.0, 0.05, 0.0, 0.0, 0.0, 0.05)",-0.07023885846138,0.004256900865584612,-0.007449576165527105,"(0.1, 0.0, 0.0, 0.0, 0.1, 0.0, 0.0, 0.0, 0.1)",-1.5897499322891235,1.1827356815338135,8.80587387084961,"(0.5, 0.0, 0.0, 0.0, 0.5, 0.0, 0.0, 0.0, 0.5)"
2024/07/05/10:38:11.969600,6960,1720190291,964258642,imu_link,-0.0115215964615345,-0.019077960401773453,-0.770145833492279,0.6374783515930176,"(0.05, 0.0, 0.0, 0.0, 0.05, 0.0, 0.0, 0.0, 0.05)",-0.03831210732460022,0.06385350972414017,0.061725057661533356,"(0.1, 0.0, 0.0, 0.0, 0.1, 0.0, 0.0, 0.0, 0.1)",1.0055646896362305,-1.1252747774124146,8.815450668334961,"(0.5, 0.0, 0.0, 0.0, 0.5, 0.0, 0.0, 0.0, 0.5)"
2024/07/05/10:38:12.073674,6961,1720190292,67258642,imu_link,-0.011396602727472782,-0.01782355085015297,-0.7697502970695496,0.6379944682121277,"(0.05, 0.0, 0.0, 0.0, 0.05, 0.0, 0.0, 0.0, 0.05)",-0.034055206924676895,-0.1585695594549179,0.004256900865584612,"(0.1, 0.0, 0.0, 0.0, 0.1, 0.0, 0.0, 0.0, 0.1)",1.9488801956176758,0.2298433631658554,12.291831970214844,"(0.5, 0.0, 0.0, 0.0, 0.5, 0.0, 0.0, 0.0, 0.5)"
2024/07/05/10:38:12.176113,6962,1720190292,170258642,imu_link,-0.014184834435582161,-0.02027565985918045,-0.7694699764251709,0.6382034420967102,"(0.05, 0.0, 0.0, 0.0, 0.05, 0.0, 0.0, 0.0, 0.05)",-0.09365181624889374,-0.08088111132383347,-0.006385351065546274,"(0.1, 0.0, 0.0, 0.0, 0.1, 0.0, 0.0, 0.0, 0.1)",-1.3407529592514038,-0.31603461503982544,10.639832496643066,"(0.5, 0.0, 0.0, 0.0, 0.5, 0.0, 0.0, 0.0, 0.5)"
2024/07/05/10:38:12.280394,6963,1720190292,273258642,imu_link,-0.013126282021403313,-0.01547797117382288,-0.7700399160385132,0.6376728415489197,"(0.05, 0.0, 0.0, 0.0, 0.05, 0.0, 0.0, 0.0, 0.05)",0.06704618781805038,-0.047890130430459976,-0.01915605366230011,"(0.1, 0.0, 0.0, 0.0, 0.1, 0.0, 0.0, 0.0, 0.1)",0.9241618514060974,1.460463047027588,10.433931350708008,"(0.5, 0.0, 0.0, 0.0, 0.5, 0.0, 0.0, 0.0, 0.5)"
2024/07/05/10:38:12.382910,6964,1720190292,376258642,imu_link,-0.01037929579615593,-0.014723112806677818,-0.7707920074462891,0.6368321180343628,"(0.05, 0.0, 0.0, 0.0, 0.05, 0.0, 0.0, 0.0, 0.05)",-0.011706477031111717,-0.0521470308303833,-0.010642251931130886,"(0.1, 0.0, 0.0, 0.0, 0.1, 0.0, 0.0, 0.0, 0.1)",-0.9720458984375,-3.098097085952759,11.492168426513672,"(0.5, 0.0, 0.0, 0.0, 0.5, 0.0, 0.0, 0.0, 0.5)"
2024/07/05/10:38:12.485014,6965,1720190292,486313821,imu_link,-0.010313491337001324,-0.01581810787320137,-0.7695845365524292,0.6382656693458557,"(0.05, 0.0, 0.0, 0.0, 0.05, 0.0, 0.0, 0.0, 0.05)",0.1372850388288498,0.15431265532970428,0.04363323003053665,"(0.1, 0.0, 0.0, 0.0, 0.1, 0.0, 0.0, 0.0, 0.1)",-1.3024457693099976,3.294421434402466,9.600749015808105,"(0.5, 0.0, 0.0, 0.0, 0.5, 0.0, 0.0, 0.0, 0.5)"
2024/07/05/10:38:12.570397,6966,1720190292,569313821,imu_link,-0.007488013245165348,-0.015997838228940964,-0.7693808674812317,0.6385460495948792,"(0.05, 0.0, 0.0, 0.0, 0.05, 0.0, 0.0, 0.0, 0.05)",-0.037247881293296814,0.02979830466210842,-0.05533970892429352,"(0.1, 0.0, 0.0, 0.0, 0.1, 0.0, 0.0, 0.0, 0.1)",2.7006595134735107,-0.3495534360408783,8.221688270568848,"(0.5, 0.0, 0.0, 0.0, 0.5, 0.0, 0.0, 0.0, 0.5)"
2024/07/05/10:38:12.675822,6967,1720190292,672313821,imu_link,-0.004251175560057163,-0.01686493679881096,-0.7693643569946289,0.638573408126831,"(0.05, 0.0, 0.0, 0.0, 0.05, 0.0, 0.0, 0.0, 0.05)",0.007449576165527105,0.026605628430843353,-0.005321125965565443,"(0.1, 0.0, 0.0, 0.0, 0.1, 0.0, 0.0, 0.0, 0.1)",5.30076265335083,-0.7805097699165344,9.260771751403809,"(0.5, 0.0, 0.0, 0.0, 0.5, 0.0, 0.0, 0.0, 0.5)"
2024/07/05/10:38:12.777390,6968,1720190292,775313821,imu_link,-0.005008506588637829,-0.01704235188663006,-0.7702223658561707,0.6375280022621155,"(0.05, 0.0, 0.0, 0.0, 0.05, 0.0, 0.0, 0.0, 0.05)",0.009578026831150055,-0.05746815726161003,-0.021284503862261772,"(0.1, 0.0, 0.0, 0.0, 0.1, 0.0, 0.0, 0.0, 0.1)",-1.7764976024627686,-1.4269442558288574,7.642292022705078,"(0.5, 0.0, 0.0, 0.0, 0.5, 0.0, 0.0, 0.0, 0.5)"
2024/07/05/10:38:12.879990,6969,1720190292,878313821,imu_link,-0.006676546297967434,-0.018107397481799126,-0.7694588899612427,0.6384046673774719,"(0.05, 0.0, 0.0, 0.0, 0.05, 0.0, 0.0, 0.0, 0.05)",0.025541404262185097,-0.14260616898536682,0.023412954062223434,"(0.1, 0.0, 0.0, 0.0, 0.1, 0.0, 0.0, 0.0, 0.1)",1.9536685943603516,-0.7948749661445618,10.405200958251953,"(0.5, 0.0, 0.0, 0.0, 0.5, 0.0, 0.0, 0.0, 0.5)"
2024/07/05/10:38:12.983346,6970,1720190292,981313821,imu_link,-0.004827925004065037,-0.02049708552658558,-0.7690750956535339,0.638811469078064,"(0.05, 0.0, 0.0, 0.0, 0.05, 0.0, 0.0, 0.0, 0.05)",-0.001064225216396153,0.09045914560556412,-0.005321125965565443,"(0.1, 0.0, 0.0, 0.0, 0.1, 0.0, 0.0, 0.0, 0.1)",2.0685901641845703,-3.7397429943084717,10.793061256408691,"(0.5, 0.0, 0.0, 0.0, 0.5, 0.0, 0.0, 0.0, 0.5)"
2024/07/05/10:38:13.090151,6971,1720190293,84313821,imu_link,-0.005129793658852577,-0.02403881773352623,-0.7684279084205627,0.6394641399383545,"(0.05, 0.0, 0.0, 0.0, 0.05, 0.0, 0.0, 0.0, 0.05)",0.15005575120449066,-0.0691746324300766,0.03618365526199341,"(0.1, 0.0, 0.0, 0.0, 0.1, 0.0, 0.0, 0.0, 0.1)",-0.7038952708244324,1.0295066833496094,8.65743350982666,"(0.5, 0.0, 0.0, 0.0, 0.5, 0.0, 0.0, 0.0, 0.5)"
2024/07/05/10:38:13.188385,6972,1720190293,187313821,imu_link,-0.006860365159809589,-0.020344756543636322,-0.7691823244094849,0.6386685967445374,"(0.05, 0.0, 0.0, 0.0, 0.05, 0.0, 0.0, 0.0, 0.05)",-0.028734078630805016,0.16389068961143494,-0.01383492723107338,"(0.1, 0.0, 0.0, 0.0, 0.1, 0.0, 0.0, 0.0, 0.1)",2.829946517944336,-1.9105730056762695,11.291055679321289,"(0.5, 0.0, 0.0, 0.0, 0.5, 0.0, 0.0, 0.0, 0.5)"
2024/07/05/10:38:13.269382,6973,1720190293,270313821,imu_link,-0.004013554193079472,-0.016815420240163803,-0.7688940763473511,0.6391424536705017,"(0.05, 0.0, 0.0, 0.0, 0.05, 0.0, 0.0, 0.0, 0.05)",0.001064225216396153,0.1894320845603943,-0.017027603462338448,"(0.1, 0.0, 0.0, 0.0, 0.1, 0.0, 0.0, 0.0, 0.1)",-1.2689268589019775,1.2401964664459229,9.495404243469238,"(0.5, 0.0, 0.0, 0.0, 0.5, 0.0, 0.0, 0.0, 0.5)"
2024/07/05/10:38:13.372113,6974,1720190293,373313821,imu_link,-0.009237933903932571,-0.017190568149089813,-0.7685456871986389,0.6394971609115601,"(0.05, 0.0, 0.0, 0.0, 0.05, 0.0, 0.0, 0.0, 0.05)",0.01915605366230011,-0.056403931230306625,-0.018091827630996704,"(0.1, 0.0, 0.0, 0.0, 0.1, 0.0, 0.0, 0.0, 0.1)",-2.6815059185028076,1.0055646896362305,9.294290542602539,"(0.5, 0.0, 0.0, 0.0, 0.5, 0.0, 0.0, 0.0, 0.5)"
2024/07/05/10:38:13.475602,6975,1720190293,476313821,imu_link,-0.007703540846705437,-0.016448749229311943,-0.7676791548728943,0.6405768990516663,"(0.05, 0.0, 0.0, 0.0, 0.05, 0.0, 0.0, 0.0, 0.05)",-0.04044055566191673,-0.1926247626543045,0.020220277830958366,"(0.1, 0.0, 0.0, 0.0, 0.1, 0.0, 0.0, 0.0, 0.1)",2.3367409706115723,3.8355112075805664,9.955090522766113,"(0.5, 0.0, 0.0, 0.0, 0.5, 0.0, 0.0, 0.0, 0.5)"
2024/07/05/10:38:13.578421,6976,1720190293,579313821,imu_link,-0.0036394651979207993,-0.01923702284693718,-0.7673863768577576,0.6408860087394714,"(0.05, 0.0, 0.0, 0.0, 0.05, 0.0, 0.0, 0.0, 0.05)",-0.012770702131092548,0.03299098089337349,-0.025541404262185097,"(0.1, 0.0, 0.0, 0.0, 0.1, 0.0, 0.0, 0.0, 0.1)",2.9161376953125,5.195417881011963,10.323798179626465,"(0.5, 0.0, 0.0, 0.0, 0.5, 0.0, 0.0, 0.0, 0.5)"
2024/07/05/10:38:13.682062,6977,1720190293,682313821,imu_link,-0.004270737990736961,-0.01601855456829071,-0.7677451968193054,0.6405407786369324,"(0.05, 0.0, 0.0, 0.0, 0.05, 0.0, 0.0, 0.0, 0.05)",0.026605628430843353,0.06491773575544357,-0.007449576165527105,"(0.1, 0.0, 0.0, 0.0, 0.1, 0.0, 0.0, 0.0, 0.1)",-2.6240451335906982,-2.2601263523101807,11.903970718383789,"(0.5, 0.0, 0.0, 0.0, 0.5, 0.0, 0.0, 0.0, 0.5)"
2024/07/05/10:38:13.784307,6978,1720190293,785313821,imu_link,-0.002929248847067356,-0.010195732116699219,-0.7676023840904236,0.6408385634422302,"(0.05, 0.0, 0.0, 0.0, 0.05, 0.0, 0.0, 0.0, 0.05)",-0.04150478169322014,0.1926247626543045,0.0,"(0.1, 0.0, 0.0, 0.0, 0.1, 0.0, 0.0, 0.0, 0.1)",0.28730419278144836,1.723825216293335,11.765107154846191,"(0.5, 0.0, 0.0, 0.0, 0.5, 0.0, 0.0, 0.0, 0.5)"
2024/07/05/10:38:13.867705,6979,1720190293,868313821,imu_link,9.275320917367935e-05,-0.008541254326701164,-0.7667666673660278,0.641869068145752,"(0.05, 0.0, 0.0, 0.0, 0.05, 0.0, 0.0, 0.0, 0.05)",0.03618365526199341,0.20113855600357056,-0.005321125965565443,"(0.1, 0.0, 0.0, 0.0, 0.1, 0.0, 0.0, 0.0, 0.1)",0.17717093229293823,1.7717092037200928,11.276689529418945,"(0.5, 0.0, 0.0, 0.0, 0.5, 0.0, 0.0, 0.0, 0.5)"
2024/07/05/10:38:13.969963,6980,1720190293,971313821,imu_link,0.0036927247419953346,-0.004711363464593887,-0.7668291330337524,0.641823410987854,"(0.05, 0.0, 0.0, 0.0, 0.05, 0.0, 0.0, 0.0, 0.05)",0.04576168209314346,0.04469745606184006,0.02447717823088169,"(0.1, 0.0, 0.0, 0.0, 0.1, 0.0, 0.0, 0.0, 0.1)",-1.0199298858642578,0.363918662071228,9.916783332824707,"(0.5, 0.0, 0.0, 0.0, 0.5, 0.0, 0.0, 0.0, 0.5)"
2024/07/05/10:38:14.073141,6981,1720190294,74313821,imu_link,0.00827459990978241,-0.003023555502295494,-0.7661224007606506,0.6426342725753784,"(0.05, 0.0, 0.0, 0.0, 0.05, 0.0, 0.0, 0.0, 0.05)",-0.09897294640541077,-0.061725057661533356,-0.025541404262185097,"(0.1, 0.0, 0.0, 0.0, 0.1, 0.0, 0.0, 0.0, 0.1)",-0.569819986820221,0.7422025203704834,8.53293514251709,"(0.5, 0.0, 0.0, 0.0, 0.5, 0.0, 0.0, 0.0, 0.5)"
2024/07/05/10:38:14.177044,6982,1720190294,177313821,imu_link,0.004330568015575409,-0.008961893618106842,-0.766473114490509,0.6421992778778076,"(0.05, 0.0, 0.0, 0.0, 0.05, 0.0, 0.0, 0.0, 0.05)",0.005321125965565443,-0.2277441769838333,-0.007449576165527105,"(0.1, 0.0, 0.0, 0.0, 0.1, 0.0, 0.0, 0.0, 0.1)",-3.404554843902588,1.3551181554794312,9.232041358947754,"(0.5, 0.0, 0.0, 0.0, 0.5, 0.0, 0.0, 0.0, 0.5)"
2024/07/05/10:38:14.279204,6983,1720190294,280313821,imu_link,-0.0019299304112792015,-0.012311666272580624,-0.7660380601882935,0.6426743865013123,"(0.05, 0.0, 0.0, 0.0, 0.05, 0.0, 0.0, 0.0, 0.05)",-0.018091827630996704,-0.3267171382904053,0.034055206924676895,"(0.1, 0.0, 0.0, 0.0, 0.1, 0.0, 0.0, 0.0, 0.1)",-1.039083480834961,-2.097320795059204,8.259995460510254,"(0.5, 0.0, 0.0, 0.0, 0.5, 0.0, 0.0, 0.0, 0.5)"
2024/07/05/10:38:14.382538,6984,1720190294,383313821,imu_link,-0.004477028734982014,-0.0181136392056942,-0.7659464478492737,0.6426335573196411,"(0.05, 0.0, 0.0, 0.0, 0.05, 0.0, 0.0, 0.0, 0.05)",0.037247881293296814,0.05746815726161003,0.034055206924676895,"(0.1, 0.0, 0.0, 0.0, 0.1, 0.0, 0.0, 0.0, 0.1)",1.9728221893310547,1.9728221893310547,8.255207061767578,"(0.5, 0.0, 0.0, 0.0, 0.5, 0.0, 0.0, 0.0, 0.5)"
2024/07/05/10:38:14.485521,6985,1720190294,486313821,imu_link,-0.0009125052019953728,-0.016312705352902412,-0.765461802482605,0.6432738900184631,"(0.05, 0.0, 0.0, 0.0, 0.05, 0.0, 0.0, 0.0, 0.05)",0.08513801544904709,0.2979830503463745,0.023412954062223434,"(0.1, 0.0, 0.0, 0.0, 0.1, 0.0, 0.0, 0.0, 0.1)",0.6368576288223267,2.561795711517334,9.840168952941895,"(0.5, 0.0, 0.0, 0.0, 0.5, 0.0, 0.0, 0.0, 0.5)"
2024/07/05/10:38:14.568892,6986,1720190294,569313821,imu_link,-0.0019947178661823273,-0.015748146921396255,-0.7652074098587036,0.6435880661010742,"(0.05, 0.0, 0.0, 0.0, 0.05, 0.0, 0.0, 0.0, 0.05)",-0.05427548289299011,-0.05959660932421684,0.008513801731169224,"(0.1, 0.0, 0.0, 0.0, 0.1, 0.0, 0.0, 0.0, 0.1)",2.169146776199341,-1.6089035272598267,9.375694274902344,"(0.5, 0.0, 0.0, 0.0, 0.5, 0.0, 0.0, 0.0, 0.5)"
2024/07/05/10:38:14.670987,6987,1720190294,672313821,imu_link,-0.007435625419020653,-0.013993523083627224,-0.7646502256393433,0.6442506313323975,"(0.05, 0.0, 0.0, 0.0, 0.05, 0.0, 0.0, 0.0, 0.05)",0.0,0.04469745606184006,0.02766985446214676,"(0.1, 0.0, 0.0, 0.0, 0.1, 0.0, 0.0, 0.0, 0.1)",3.1076738834381104,2.293645143508911,9.50498104095459,"(0.5, 0.0, 0.0, 0.0, 0.5, 0.0, 0.0, 0.0, 0.5)"
2024/07/05/10:38:14.775041,6988,1720190294,775313821,imu_link,-0.007166093215346336,-0.012502048164606094,-0.7644095420837402,0.6445698738098145,"(0.05, 0.0, 0.0, 0.0, 0.05, 0.0, 0.0, 0.0, 0.05)",-0.12983547151088715,-0.058532387018203735,-0.012770702131092548,"(0.1, 0.0, 0.0, 0.0, 0.1, 0.0, 0.0, 0.0, 0.1)",0.8379706144332886,1.7525556087493896,8.83939266204834,"(0.5, 0.0, 0.0, 0.0, 0.5, 0.0, 0.0, 0.0, 0.5)"
2024/07/05/10:38:14.877819,6989,1720190294,878313821,imu_link,-0.005515146069228649,-0.0104789137840271,-0.7635530233383179,0.6456365585327148,"(0.05, 0.0, 0.0, 0.0, 0.05, 0.0, 0.0, 0.0, 0.05)",0.006385351065546274,-0.19581742584705353,0.03831210732460022,"(0.1, 0.0, 0.0, 0.0, 0.1, 0.0, 0.0, 0.0, 0.1)",-1.5610195398330688,-0.4405331015586853,8.643068313598633,"(0.5, 0.0, 0.0, 0.0, 0.5, 0.0, 0.0, 0.0, 0.5)"
2024/07/05/10:38:14.987812,6990,1720190294,988281957,imu_link,-0.010661703534424305,-0.015501551330089569,-0.7631213665008545,0.6459812521934509,"(0.05, 0.0, 0.0, 0.0, 0.05, 0.0, 0.0, 0.0, 0.05)",0.07343153655529022,-0.06066083535552025,-0.025541404262185097,"(0.1, 0.0, 0.0, 0.0, 0.1, 0.0, 0.0, 0.0, 0.1)",-0.3064578175544739,1.5083470344543457,9.672574996948242,"(0.5, 0.0, 0.0, 0.0, 0.5, 0.0, 0.0, 0.0, 0.5)"
2024/07/05/10:38:15.092289,6991,1720190295,91281957,imu_link,-0.012072809040546417,-0.020992079749703407,-0.763618528842926,0.6452133655548096,"(0.05, 0.0, 0.0, 0.0, 0.05, 0.0, 0.0, 0.0, 0.05)",0.11706477403640747,-0.008513801731169224,-0.03618365526199341,"(0.1, 0.0, 0.0, 0.0, 0.1, 0.0, 0.0, 0.0, 0.1)",-1.2976573705673218,-1.6424223184585571,9.275136947631836,"(0.5, 0.0, 0.0, 0.0, 0.5, 0.0, 0.0, 0.0, 0.5)"
2024/07/05/10:38:15.166376,6992,1720190295,174281957,imu_link,-0.010439494624733925,-0.01993417739868164,-0.7653494477272034,0.6432214379310608,"(0.05, 0.0, 0.0, 0.0, 0.05, 0.0, 0.0, 0.0, 0.05)",0.018091827630996704,0.08300956338644028,-0.05321125686168671,"(0.1, 0.0, 0.0, 0.0, 0.1, 0.0, 0.0, 0.0, 0.1)",-2.978386878967285,-1.3646949529647827,10.587160110473633,"(0.5, 0.0, 0.0, 0.0, 0.5, 0.0, 0.0, 0.0, 0.5)"
2024/07/05/10:38:15.269319,6993,1720190295,277281957,imu_link,-0.005828709341585636,-0.019416354596614838,-0.7647757530212402,0.6439775824546814,"(0.05, 0.0, 0.0, 0.0, 0.05, 0.0, 0.0, 0.0, 0.05)",0.05533970892429352,0.2745700776576996,-0.017027603462338448,"(0.1, 0.0, 0.0, 0.0, 0.1, 0.0, 0.0, 0.0, 0.1)",0.23942017555236816,1.843535304069519,7.723694801330566,"(0.5, 0.0, 0.0, 0.0, 0.5, 0.0, 0.0, 0.0, 0.5)"
2024/07/05/10:38:15.372042,6994,1720190295,380281957,imu_link,0.001182742416858673,-0.015035445801913738,-0.7641665935516357,0.6448426246643066,"(0.05, 0.0, 0.0, 0.0, 0.05, 0.0, 0.0, 0.0, 0.05)",0.04150478169322014,0.08088111132383347,0.009578026831150055,"(0.1, 0.0, 0.0, 0.0, 0.1, 0.0, 0.0, 0.0, 0.1)",-2.5474305152893066,-1.1300631761550903,11.314997673034668,"(0.5, 0.0, 0.0, 0.0, 0.5, 0.0, 0.0, 0.0, 0.5)"
2024/07/05/10:38:15.482100,6995,1720190295,483281957,imu_link,0.0033430764451622963,-0.01046029757708311,-0.763985276222229,0.6451402306556702,"(0.05, 0.0, 0.0, 0.0, 0.05, 0.0, 0.0, 0.0, 0.05)",-0.15324842929840088,-0.07875265926122665,-0.015963377431035042,"(0.1, 0.0, 0.0, 0.0, 0.1, 0.0, 0.0, 0.0, 0.1)",1.455674648284912,-0.6655880808830261,10.199298858642578,"(0.5, 0.0, 0.0, 0.0, 0.5, 0.0, 0.0, 0.0, 0.5)"
2024/07/05/10:38:15.583205,6996,1720190295,586281957,imu_link,0.00017135031521320343,-0.010888613760471344,-0.7638285756111145,0.6453273296356201,"(0.05, 0.0, 0.0, 0.0, 0.05, 0.0, 0.0, 0.0, 0.05)",-0.04576168209314346,-0.09365181624889374,0.004256900865584612,"(0.1, 0.0, 0.0, 0.0, 0.1, 0.0, 0.0, 0.0, 0.1)",1.2689268589019775,2.0159177780151367,9.639056205749512,"(0.5, 0.0, 0.0, 0.0, 0.5, 0.0, 0.0, 0.0, 0.5)"
2024/07/05/10:38:15.686489,6997,1720190295,689281957,imu_link,-0.00430288165807724,-0.011319121345877647,-0.763805091381073,0.6453333497047424,"(0.05, 0.0, 0.0, 0.0, 0.05, 0.0, 0.0, 0.0, 0.05)",-0.08513801544904709,-0.2437075674533844,0.02447717823088169,"(0.1, 0.0, 0.0, 0.0, 0.1, 0.0, 0.0, 0.0, 0.1)",0.28730419278144836,0.3974374830722809,10.467450141906738,"(0.5, 0.0, 0.0, 0.0, 0.5, 0.0, 0.0, 0.0, 0.5)"
2024/07/05/10:38:15.784601,6998,1720190295,792281957,imu_link,-0.006261143833398819,-0.012954280711710453,-0.7633135318756104,0.6458679437637329,"(0.05, 0.0, 0.0, 0.0, 0.05, 0.0, 0.0, 0.0, 0.05)",0.017027603462338448,0.06491773575544357,0.001064225216396153,"(0.1, 0.0, 0.0, 0.0, 0.1, 0.0, 0.0, 0.0, 0.1)",2.896984100341797,1.8626888990402222,9.117119789123535,"(0.5, 0.0, 0.0, 0.0, 0.5, 0.0, 0.0, 0.0, 0.5)"
2024/07/05/10:38:15.871016,6999,1720190295,875281957,imu_link,-0.008543161675333977,-0.018107570707798004,-0.7625070214271545,0.6466700434684753,"(0.05, 0.0, 0.0, 0.0, 0.05, 0.0, 0.0, 0.0, 0.05)",0.11493631452322006,-0.06385350972414017,0.04469745606184006,"(0.1, 0.0, 0.0, 0.0, 0.1, 0.0, 0.0, 0.0, 0.1)",1.335964560508728,-2.542642116546631,9.418789863586426,"(0.5, 0.0, 0.0, 0.0, 0.5, 0.0, 0.0, 0.0, 0.5)"
2024/07/05/10:38:15.984931,7000,1720190295,978281957,imu_link,-0.008950228802859783,-0.018641360104084015,-0.7630704045295715,0.6459844708442688,"(0.05, 0.0, 0.0, 0.0, 0.05, 0.0, 0.0, 0.0, 0.05)",-0.11812899261713028,0.006385351065546274,-0.01915605366230011,"(0.1, 0.0, 0.0, 0.0, 0.1, 0.0, 0.0, 0.0, 0.1)",3.35667085647583,-0.2537853717803955,7.546523571014404,"(0.5, 0.0, 0.0, 0.0, 0.5, 0.0, 0.0, 0.0, 0.5)"
2024/07/05/10:38:16.082976,7001,1720190296,81281957,imu_link,-0.0016994737088680267,-0.013772754929959774,-0.7637450098991394,0.6453688740730286,"(0.05, 0.0, 0.0, 0.0, 0.05, 0.0, 0.0, 0.0, 0.05)",-0.030862528830766678,0.28946924209594727,0.021284503862261772,"(0.1, 0.0, 0.0, 0.0, 0.1, 0.0, 0.0, 0.0, 0.1)",1.7477672100067139,-0.646434485912323,9.643844604492188,"(0.5, 0.0, 0.0, 0.0, 0.5, 0.0, 0.0, 0.0, 0.5)"
2024/07/05/10:38:16.180316,7002,1720190296,184281957,imu_link,0.003098144195973873,-0.011188395321369171,-0.762809693813324,0.6465188264846802,"(0.05, 0.0, 0.0, 0.0, 0.05, 0.0, 0.0, 0.0, 0.05)",-0.04469745606184006,-0.06704618781805038,0.06491773575544357,"(0.1, 0.0, 0.0, 0.0, 0.1, 0.0, 0.0, 0.0, 0.1)",-4.094084739685059,-1.1683704853057861,8.078036308288574,"(0.5, 0.0, 0.0, 0.0, 0.5, 0.0, 0.0, 0.0, 0.5)"
2024/07/05/10:38:16.281035,7003,1720190296,287281957,imu_link,0.0027544964104890823,-0.01145950611680746,-0.7630035877227783,0.6462867856025696,"(0.05, 0.0, 0.0, 0.0, 0.05, 0.0, 0.0, 0.0, 0.05)",-0.011706477031111717,-0.2245515137910843,0.01383492723107338,"(0.1, 0.0, 0.0, 0.0, 0.1, 0.0, 0.0, 0.0, 0.1)",0.028730420395731926,1.2018892765045166,8.609549522399902,"(0.5, 0.0, 0.0, 0.0, 0.5, 0.0, 0.0, 0.0, 0.5)"
2024/07/05/10:38:16.390392,7004,1720190296,390281957,imu_link,0.0007890909910202026,-0.013554094359278679,-0.762078583240509,0.6473422050476074,"(0.05, 0.0, 0.0, 0.0, 0.05, 0.0, 0.0, 0.0, 0.05)",0.01383492723107338,-0.018091827630996704,0.006385351065546274,"(0.1, 0.0, 0.0, 0.0, 0.1, 0.0, 0.0, 0.0, 0.1)",0.8331822156906128,1.0055646896362305,9.50498104095459,"(0.5, 0.0, 0.0, 0.0, 0.5, 0.0, 0.0, 0.0, 0.5)"
2024/07/05/10:38:16.470583,7005,1720190296,473281957,imu_link,0.0014071399345993996,-0.014146949164569378,-0.7621687054634094,0.6472223401069641,"(0.05, 0.0, 0.0, 0.0, 0.05, 0.0, 0.0, 0.0, 0.05)",0.06704618781805038,0.01489915233105421,0.012770702131092548,"(0.1, 0.0, 0.0, 0.0, 0.1, 0.0, 0.0, 0.0, 0.1)",-2.145204782485962,1.6711528301239014,10.400412559509277,"(0.5, 0.0, 0.0, 0.0, 0.5, 0.0, 0.0, 0.0, 0.5)"
2024/07/05/10:38:16.576576,7006,1720190296,576281957,imu_link,-0.002498799003660679,-0.01375329215079546,-0.7616721987724304,0.647811770439148,"(0.05, 0.0, 0.0, 0.0, 0.05, 0.0, 0.0, 0.0, 0.05)",-0.023412954062223434,-0.007449576165527105,-0.008513801731169224,"(0.1, 0.0, 0.0, 0.0, 0.1, 0.0, 0.0, 0.0, 0.1)",1.9297266006469727,1.1109095811843872,9.744400978088379,"(0.5, 0.0, 0.0, 0.0, 0.5, 0.0, 0.0, 0.0, 0.5)"
2024/07/05/10:38:16.671131,7007,1720190296,679281957,imu_link,-0.007657072506844997,-0.016294371336698532,-0.7611554861068726,0.6483194828033447,"(0.05, 0.0, 0.0, 0.0, 0.05, 0.0, 0.0, 0.0, 0.05)",0.03937632963061333,0.03511942923069,0.01489915233105421,"(0.1, 0.0, 0.0, 0.0, 0.1, 0.0, 0.0, 0.0, 0.1)",0.9002198576927185,-0.2968810200691223,12.014103889465332,"(0.5, 0.0, 0.0, 0.0, 0.5, 0.0, 0.0, 0.0, 0.5)"
2024/07/05/10:38:16.773679,7008,1720190296,782281957,imu_link,-0.007766935043036938,-0.016395162791013718,-0.7604067921638489,0.6491936445236206,"(0.05, 0.0, 0.0, 0.0, 0.05, 0.0, 0.0, 0.0, 0.05)",-0.028734078630805016,-0.13409237563610077,0.02979830466210842,"(0.1, 0.0, 0.0, 0.0, 0.1, 0.0, 0.0, 0.0, 0.1)",-0.07661445438861847,1.1971008777618408,9.030928611755371,"(0.5, 0.0, 0.0, 0.0, 0.5, 0.0, 0.0, 0.0, 0.5)"
2024/07/05/10:38:16.878039,7009,1720190296,885281957,imu_link,-0.00739805493503809,-0.016005367040634155,-0.7602877616882324,0.6493470668792725,"(0.05, 0.0, 0.0, 0.0, 0.05, 0.0, 0.0, 0.0, 0.05)",-0.07023885846138,-0.05959660932421684,0.01383492723107338,"(0.1, 0.0, 0.0, 0.0, 0.1, 0.0, 0.0, 0.0, 0.1)",-2.078166961669922,0.5985504388809204,10.295066833496094,"(0.5, 0.0, 0.0, 0.0, 0.5, 0.0, 0.0, 0.0, 0.5)"
2024/07/05/10:38:16.981221,7010,1720190296,988281957,imu_link,-0.012733724899590015,-0.018057722598314285,-0.7600128054618835,0.6495323777198792,"(0.05, 0.0, 0.0, 0.0, 0.05, 0.0, 0.0, 0.0, 0.05)",-0.03831210732460022,-0.10748674720525742,0.028734078630805016,"(0.1, 0.0, 0.0, 0.0, 0.1, 0.0, 0.0, 0.0, 0.1)",-1.3024457693099976,-3.050212860107422,9.710882186889648,"(0.5, 0.0, 0.0, 0.0, 0.5, 0.0, 0.0, 0.0, 0.5)"
2024/07/05/10:38:17.083861,7011,1720190297,91281957,imu_link,-0.009759947657585144,-0.014470744878053665,-0.7606043219566345,0.6489810347557068,"(0.05, 0.0, 0.0, 0.0, 0.05, 0.0, 0.0, 0.0, 0.05)",-0.008513801731169224,-0.07555998861789703,0.04044055566191673,"(0.1, 0.0, 0.0, 0.0, 0.1, 0.0, 0.0, 0.0, 0.1)",2.4133553504943848,-0.5219359993934631,9.605537414550781,"(0.5, 0.0, 0.0, 0.0, 0.5, 0.0, 0.0, 0.0, 0.5)"
2024/07/05/10:38:17.166316,7012,1720190297,174281957,imu_link,-0.010766313411295414,-0.013344886712729931,-0.76014244556427,0.6495301723480225,"(0.05, 0.0, 0.0, 0.0, 0.05, 0.0, 0.0, 0.0, 0.05)",0.058532387018203735,0.19794589281082153,-0.02447717823088169,"(0.1, 0.0, 0.0, 0.0, 0.1, 0.0, 0.0, 0.0, 0.1)",1.4413094520568848,1.1540051698684692,9.275136947631836,"(0.5, 0.0, 0.0, 0.0, 0.5, 0.0, 0.0, 0.0, 0.5)"
2024/07/05/10:38:17.270545,7013,1720190297,277281957,imu_link,-0.008421476930379868,-0.016472913324832916,-0.7596497535705566,0.6500691771507263,"(0.05, 0.0, 0.0, 0.0, 0.05, 0.0, 0.0, 0.0, 0.05)",0.06278928369283676,0.10535828769207001,0.042569007724523544,"(0.1, 0.0, 0.0, 0.0, 0.1, 0.0, 0.0, 0.0, 0.1)",1.0103530883789062,0.35913026332855225,10.44350814819336,"(0.5, 0.0, 0.0, 0.0, 0.5, 0.0, 0.0, 0.0, 0.5)"
2024/07/05/10:38:17.372249,7014,1720190297,380281957,imu_link,-0.006037876941263676,-0.01537936832755804,-0.7596535086631775,0.6501181125640869,"(0.05, 0.0, 0.0, 0.0, 0.05, 0.0, 0.0, 0.0, 0.05)",-0.02234872803092003,-0.05321125686168671,0.008513801731169224,"(0.1, 0.0, 0.0, 0.0, 0.1, 0.0, 0.0, 0.0, 0.1)",4.23773717880249,-1.7717092037200928,9.394847869873047,"(0.5, 0.0, 0.0, 0.0, 0.5, 0.0, 0.0, 0.0, 0.5)"
2024/07/05/10:38:17.475692,7015,1720190297,468318445,imu_link,-0.007280993275344372,-0.014714917168021202,-0.7596576809883118,0.6501159071922302,"(0.05, 0.0, 0.0, 0.0, 0.05, 0.0, 0.0, 0.0, 0.05)",-0.03511942923069,0.06704618781805038,0.04576168209314346,"(0.1, 0.0, 0.0, 0.0, 0.1, 0.0, 0.0, 0.0, 0.1)",-3.754108190536499,0.15322890877723694,9.983820915222168,"(0.5, 0.0, 0.0, 0.0, 0.5, 0.0, 0.0, 0.0, 0.5)"
2024/07/05/10:38:17.578290,7016,1720190297,571318445,imu_link,-0.006710288114845753,-0.013957281596958637,-0.7589713335037231,0.6509398818016052,"(0.05, 0.0, 0.0, 0.0, 0.05, 0.0, 0.0, 0.0, 0.05)",0.05746815726161003,-0.13622082769870758,-0.005321125965565443,"(0.1, 0.0, 0.0, 0.0, 0.1, 0.0, 0.0, 0.0, 0.1)",-1.7573440074920654,0.14365209639072418,9.294290542602539,"(0.5, 0.0, 0.0, 0.0, 0.5, 0.0, 0.0, 0.0, 0.5)"
2024/07/05/10:38:17.680785,7017,1720190297,674318445,imu_link,-0.003095869906246662,-0.016239389777183533,-0.7587433457374573,0.651179850101471,"(0.05, 0.0, 0.0, 0.0, 0.05, 0.0, 0.0, 0.0, 0.05)",-0.01915605366230011,-0.11067941784858704,-0.003192675532773137,"(0.1, 0.0, 0.0, 0.0, 0.1, 0.0, 0.0, 0.0, 0.1)",-0.35913026332855225,-1.5083470344543457,10.448296546936035,"(0.5, 0.0, 0.0, 0.0, 0.5, 0.0, 0.0, 0.0, 0.5)"
2024/07/05/10:38:17.764517,7018,1720190297,757318445,imu_link,-0.005874978378415108,-0.019195634871721268,-0.758125364780426,0.6517997980117798,"(0.05, 0.0, 0.0, 0.0, 0.05, 0.0, 0.0, 0.0, 0.05)",0.030862528830766678,0.06598196178674698,-0.018091827630996704,"(0.1, 0.0, 0.0, 0.0, 0.1, 0.0, 0.0, 0.0, 0.1)",3.112462282180786,0.7852981686592102,10.160991668701172,"(0.5, 0.0, 0.0, 0.0, 0.5, 0.0, 0.0, 0.0, 0.5)"
2024/07/05/10:38:17.867616,7019,1720190297,860318445,imu_link,-0.004823746159672737,-0.016798753291368484,-0.7588379383087158,0.6510449647903442,"(0.05, 0.0, 0.0, 0.0, 0.05, 0.0, 0.0, 0.0, 0.05)",-0.02766985446214676,-0.03618365526199341,-0.01383492723107338,"(0.1, 0.0, 0.0, 0.0, 0.1, 0.0, 0.0, 0.0, 0.1)",4.395754337310791,-1.6089035272598267,9.758766174316406,"(0.5, 0.0, 0.0, 0.0, 0.5, 0.0, 0.0, 0.0, 0.5)"
2024/07/05/10:38:17.970968,7020,1720190297,963318445,imu_link,-0.004558940418064594,-0.017502933740615845,-0.7585198879241943,0.6513988375663757,"(0.05, 0.0, 0.0, 0.0, 0.05, 0.0, 0.0, 0.0, 0.05)",-0.051082808524370193,0.0521470308303833,-0.008513801731169224,"(0.1, 0.0, 0.0, 0.0, 0.1, 0.0, 0.0, 0.0, 0.1)",0.1867477297782898,-1.278503656387329,11.291055679321289,"(0.5, 0.0, 0.0, 0.0, 0.5, 0.0, 0.0, 0.0, 0.5)"
2024/07/05/10:38:18.073343,7021,1720190298,66318445,imu_link,-0.008298907428979874,-0.017927397042512894,-0.7583128809928894,0.651591420173645,"(0.05, 0.0, 0.0, 0.0, 0.05, 0.0, 0.0, 0.0, 0.05)",0.031926754862070084,0.06811041384935379,0.0,"(0.1, 0.0, 0.0, 0.0, 0.1, 0.0, 0.0, 0.0, 0.1)",-0.4405331015586853,-0.8331822156906128,9.198522567749023,"(0.5, 0.0, 0.0, 0.0, 0.5, 0.0, 0.0, 0.0, 0.5)"
2024/07/05/10:38:18.175693,7022,1720190298,169318445,imu_link,-0.00837201438844204,-0.01889694482088089,-0.7575116753578186,0.6524943113327026,"(0.05, 0.0, 0.0, 0.0, 0.05, 0.0, 0.0, 0.0, 0.05)",-0.0862022414803505,-0.13622082769870758,0.04044055566191673,"(0.1, 0.0, 0.0, 0.0, 0.1, 0.0, 0.0, 0.0, 0.1)",-1.742978811264038,2.3319525718688965,8.461109161376953,"(0.5, 0.0, 0.0, 0.0, 0.5, 0.0, 0.0, 0.0, 0.5)"
2024/07/05/10:38:18.279441,7023,1720190298,272318445,imu_link,-0.008762932382524014,-0.019284330308437347,-0.7571425437927246,0.6529061794281006,"(0.05, 0.0, 0.0, 0.0, 0.05, 0.0, 0.0, 0.0, 0.05)",-0.0862022414803505,0.009578026831150055,-0.002128450432792306,"(0.1, 0.0, 0.0, 0.0, 0.1, 0.0, 0.0, 0.0, 0.1)",1.3311761617660522,1.9393033981323242,10.764330863952637,"(0.5, 0.0, 0.0, 0.0, 0.5, 0.0, 0.0, 0.0, 0.5)"
2024/07/05/10:38:18.382768,7024,1720190298,375318445,imu_link,-0.008824611082673073,-0.012780788354575634,-0.7571243047714233,0.6530861854553223,"(0.05, 0.0, 0.0, 0.0, 0.05, 0.0, 0.0, 0.0, 0.05)",-0.07449576258659363,0.01489915233105421,0.006385351065546274,"(0.1, 0.0, 0.0, 0.0, 0.1, 0.0, 0.0, 0.0, 0.1)",-2.4851813316345215,6.143521785736084,8.944737434387207,"(0.5, 0.0, 0.0, 0.0, 0.5, 0.0, 0.0, 0.0, 0.5)"
2024/07/05/10:38:18.465189,7025,1720190298,458318445,imu_link,-0.0042592184618115425,-0.008811268955469131,-0.7573382258415222,0.6529495120048523,"(0.05, 0.0, 0.0, 0.0, 0.05, 0.0, 0.0, 0.0, 0.05)",0.030862528830766678,0.06278928369283676,0.01383492723107338,"(0.1, 0.0, 0.0, 0.0, 0.1, 0.0, 0.0, 0.0, 0.1)",1.7717092037200928,3.2082302570343018,8.293514251708984,"(0.5, 0.0, 0.0, 0.0, 0.5, 0.0, 0.0, 0.0, 0.5)"
2024/07/05/10:38:18.568389,7026,1720190298,561318445,imu_link,-0.002217186614871025,-0.008042344823479652,-0.756372332572937,0.6540881395339966,"(0.05, 0.0, 0.0, 0.0, 0.05, 0.0, 0.0, 0.0, 0.05)",-0.005321125965565443,0.19901010394096375,0.020220277830958366,"(0.1, 0.0, 0.0, 0.0, 0.1, 0.0, 0.0, 0.0, 0.1)",-5.626373767852783,-3.069366693496704,11.200075149536133,"(0.5, 0.0, 0.0, 0.0, 0.5, 0.0, 0.0, 0.0, 0.5)"
2024/07/05/10:38:18.671550,7027,1720190298,664318445,imu_link,-0.0027297846972942352,-0.007169484160840511,-0.7555994391441345,0.6549890041351318,"(0.05, 0.0, 0.0, 0.0, 0.05, 0.0, 0.0, 0.0, 0.05)",0.07875265926122665,0.003192675532773137,0.061725057661533356,"(0.1, 0.0, 0.0, 0.0, 0.1, 0.0, 0.0, 0.0, 0.1)",4.400542736053467,0.1388636976480484,8.959102630615234,"(0.5, 0.0, 0.0, 0.0, 0.5, 0.0, 0.0, 0.0, 0.5)"
2024/07/05/10:38:18.774457,7028,1720190298,767318445,imu_link,-0.0036132531240582466,-0.010493168607354164,-0.7548759579658508,0.6557736396789551,"(0.05, 0.0, 0.0, 0.0, 0.05, 0.0, 0.0, 0.0, 0.05)",0.018091827630996704,-0.012770702131092548,0.002128450432792306,"(0.1, 0.0, 0.0, 0.0, 0.1, 0.0, 0.0, 0.0, 0.1)",0.5793967843055725,2.5474305152893066,9.888052940368652,"(0.5, 0.0, 0.0, 0.0, 0.5, 0.0, 0.0, 0.0, 0.5)"
2024/07/05/10:38:18.878383,7029,1720190298,870318445,imu_link,-0.00203732680529356,-0.011111950501799583,-0.755290150642395,0.6552932262420654,"(0.05, 0.0, 0.0, 0.0, 0.05, 0.0, 0.0, 0.0, 0.05)",0.007449576165527105,0.12877124547958374,-0.008513801731169224,"(0.1, 0.0, 0.0, 0.0, 0.1, 0.0, 0.0, 0.0, 0.1)",-4.592078685760498,-0.43095630407333374,9.260771751403809,"(0.5, 0.0, 0.0, 0.0, 0.5, 0.0, 0.0, 0.0, 0.5)"
2024/07/05/10:38:18.980810,7030,1720190298,973318445,imu_link,0.00013953819870948792,-0.0075011709704995155,-0.7551755309104919,0.6554797291755676,"(0.05, 0.0, 0.0, 0.0, 0.05, 0.0, 0.0, 0.0, 0.05)",-0.042569007724523544,-0.15005575120449066,0.007449576165527105,"(0.1, 0.0, 0.0, 0.0, 0.1, 0.0, 0.0, 0.0, 0.1)",-3.00711727142334,0.1388636976480484,8.576030731201172,"(0.5, 0.0, 0.0, 0.0, 0.5, 0.0, 0.0, 0.0, 0.5)"
2024/07/05/10:38:19.068032,7031,1720190299,56318445,imu_link,0.004218635149300098,-0.008274794556200504,-0.7550864815711975,0.6555593609809875,"(0.05, 0.0, 0.0, 0.0, 0.05, 0.0, 0.0, 0.0, 0.05)",0.003192675532773137,-0.051082808524370193,-0.008513801731169224,"(0.1, 0.0, 0.0, 0.0, 0.1, 0.0, 0.0, 0.0, 0.1)",-0.5554547905921936,0.37828385829925537,9.327810287475586,"(0.5, 0.0, 0.0, 0.0, 0.5, 0.0, 0.0, 0.0, 0.5)"
2024/07/05/10:38:19.168785,7032,1720190299,159318445,imu_link,0.0025184722617268562,-0.012218312360346317,-0.7548713684082031,0.6557542085647583,"(0.05, 0.0, 0.0, 0.0, 0.05, 0.0, 0.0, 0.0, 0.05)",0.16814757883548737,0.10535828769207001,-0.002128450432792306,"(0.1, 0.0, 0.0, 0.0, 0.1, 0.0, 0.0, 0.0, 0.1)",1.3215993642807007,0.5123591423034668,9.782708168029785,"(0.5, 0.0, 0.0, 0.0, 0.5, 0.0, 0.0, 0.0, 0.5)"
2024/07/05/10:38:19.273788,7033,1720190299,262318445,imu_link,0.0008517168462276459,-0.014268741011619568,-0.7551072239875793,0.6554454565048218,"(0.05, 0.0, 0.0, 0.0, 0.05, 0.0, 0.0, 0.0, 0.05)",-0.047890130430459976,-0.13409237563610077,0.003192675532773137,"(0.1, 0.0, 0.0, 0.0, 0.1, 0.0, 0.0, 0.0, 0.1)",0.10055647045373917,1.0247182846069336,9.222464561462402,"(0.5, 0.0, 0.0, 0.0, 0.5, 0.0, 0.0, 0.0, 0.5)"
2024/07/05/10:38:19.377179,7034,1720190299,365318445,imu_link,-0.002136705443263054,-0.015271156094968319,-0.7548264861106873,0.6557432413101196,"(0.05, 0.0, 0.0, 0.0, 0.05, 0.0, 0.0, 0.0, 0.05)",-0.03937632963061333,0.04044055566191673,0.012770702131092548,"(0.1, 0.0, 0.0, 0.0, 0.1, 0.0, 0.0, 0.0, 0.1)",-1.1348515748977661,-0.727837324142456,8.772355079650879,"(0.5, 0.0, 0.0, 0.0, 0.5, 0.0, 0.0, 0.0, 0.5)"
2024/07/05/10:38:19.477948,7035,1720190299,468318445,imu_link,-0.006130312569439411,-0.017663229256868362,-0.7546724677085876,0.6558352708816528,"(0.05, 0.0, 0.0, 0.0, 0.05, 0.0, 0.0, 0.0, 0.05)",-0.047890130430459976,-0.04363323003053665,0.010642251931130886,"(0.1, 0.0, 0.0, 0.0, 0.1, 0.0, 0.0, 0.0, 0.1)",1.0773907899856567,-4.525041103363037,9.361329078674316,"(0.5, 0.0, 0.0, 0.0, 0.5, 0.0, 0.0, 0.0, 0.5)"
2024/07/05/10:38:19.580771,7036,1720190299,571318445,imu_link,-0.005418651737272739,-0.01608593575656414,-0.754372775554657,0.6562268137931824,"(0.05, 0.0, 0.0, 0.0, 0.05, 0.0, 0.0, 0.0, 0.05)",-0.030862528830766678,-0.011706477031111717,0.02234872803092003,"(0.1, 0.0, 0.0, 0.0, 0.1, 0.0, 0.0, 0.0, 0.1)",-1.8387469053268433,0.4644751250743866,9.519346237182617,"(0.5, 0.0, 0.0, 0.0, 0.5, 0.0, 0.0, 0.0, 0.5)"
2024/07/05/10:38:19.689469,7037,1720190299,674318445,imu_link,-0.00475282222032547,-0.015787433832883835,-0.7542816996574402,0.6563438773155212,"(0.05, 0.0, 0.0, 0.0, 0.05, 0.0, 0.0, 0.0, 0.05)",-0.0691746324300766,-0.023412954062223434,-0.03511942923069,"(0.1, 0.0, 0.0, 0.0, 0.1, 0.0, 0.0, 0.0, 0.1)",-1.5514427423477173,0.7852981686592102,8.983044624328613,"(0.5, 0.0, 0.0, 0.0, 0.5, 0.0, 0.0, 0.0, 0.5)"
2024/07/05/10:38:19.764679,7038,1720190299,757318445,imu_link,-0.010368434712290764,-0.017824798822402954,-0.7540785074234009,0.6564605236053467,"(0.05, 0.0, 0.0, 0.0, 0.05, 0.0, 0.0, 0.0, 0.05)",-0.06811041384935379,-0.1926247626543045,0.028734078630805016,"(0.1, 0.0, 0.0, 0.0, 0.1, 0.0, 0.0, 0.0, 0.1)",-2.2697031497955322,-0.22505496442317963,10.496180534362793,"(0.5, 0.0, 0.0, 0.0, 0.5, 0.0, 0.0, 0.0, 0.5)"
2024/07/05/10:38:19.867679,7039,1720190299,860318445,imu_link,-0.012893733568489552,-0.020797668024897575,-0.7541688680648804,0.6562244296073914,"(0.05, 0.0, 0.0, 0.0, 0.05, 0.0, 0.0, 0.0, 0.05)",-0.06704618781805038,-0.19688165187835693,0.005321125965565443,"(0.1, 0.0, 0.0, 0.0, 0.1, 0.0, 0.0, 0.0, 0.1)",1.1300631761550903,1.0773907899856567,9.93593692779541,"(0.5, 0.0, 0.0, 0.0, 0.5, 0.0, 0.0, 0.0, 0.5)"
2024/07/05/10:38:19.970142,7040,1720190299,963839981,imu_link,-0.016504894942045212,-0.021826136857271194,-0.7536829113960266,0.6566683053970337,"(0.05, 0.0, 0.0, 0.0, 0.05, 0.0, 0.0, 0.0, 0.05)",-0.023412954062223434,0.24796445667743683,0.010642251931130886,"(0.1, 0.0, 0.0, 0.0, 0.1, 0.0, 0.0, 0.0, 0.1)",1.7142484188079834,0.014365210197865963,10.56800651550293,"(0.5, 0.0, 0.0, 0.0, 0.5, 0.0, 0.0, 0.0, 0.5)"
2024/07/05/10:38:20.074075,7041,1720190300,66839981,imu_link,-0.010991929098963737,-0.016240613535046577,-0.7535348534584045,0.6571153998374939,"(0.05, 0.0, 0.0, 0.0, 0.05, 0.0, 0.0, 0.0, 0.05)",0.15963377058506012,0.23945066332817078,-0.001064225216396153,"(0.1, 0.0, 0.0, 0.0, 0.1, 0.0, 0.0, 0.0, 0.1)",1.6280571222305298,1.278503656387329,9.605537414550781,"(0.5, 0.0, 0.0, 0.0, 0.5, 0.0, 0.0, 0.0, 0.5)"
2024/07/05/10:38:20.176529,7042,1720190300,169839981,imu_link,-0.005853159353137016,-0.011629737913608551,-0.7536319494247437,0.6571677327156067,"(0.05, 0.0, 0.0, 0.0, 0.05, 0.0, 0.0, 0.0, 0.05)",-0.17027603089809418,-0.07130308449268341,-0.009578026831150055,"(0.1, 0.0, 0.0, 0.0, 0.1, 0.0, 0.0, 0.0, 0.1)",-0.6991068720817566,-2.1356279850006104,9.725247383117676,"(0.5, 0.0, 0.0, 0.0, 0.5, 0.0, 0.0, 0.0, 0.5)"
2024/07/05/10:38:20.280422,7043,1720190300,272839981,imu_link,-0.0035083675757050514,-0.014666711911559105,-0.7535497546195984,0.6572178602218628,"(0.05, 0.0, 0.0, 0.0, 0.05, 0.0, 0.0, 0.0, 0.05)",0.03937632963061333,-0.021284503862261772,-0.05533970892429352,"(0.1, 0.0, 0.0, 0.0, 0.1, 0.0, 0.0, 0.0, 0.1)",0.9289502501487732,2.0159177780151367,8.556877136230469,"(0.5, 0.0, 0.0, 0.0, 0.5, 0.0, 0.0, 0.0, 0.5)"
2024/07/05/10:38:20.362584,7044,1720190300,355839981,imu_link,-4.358496516942978e-05,-0.015473532490432262,-0.7533883452415466,0.657393753528595,"(0.05, 0.0, 0.0, 0.0, 0.05, 0.0, 0.0, 0.0, 0.05)",0.07130308449268341,-0.08513801544904709,0.017027603462338448,"(0.1, 0.0, 0.0, 0.0, 0.1, 0.0, 0.0, 0.0, 0.1)",1.1492167711257935,0.5027823448181152,6.947973251342773,"(0.5, 0.0, 0.0, 0.0, 0.5, 0.0, 0.0, 0.0, 0.5)"
2024/07/05/10:38:20.466123,7045,1720190300,458839981,imu_link,0.0029390454292297363,-0.014122718945145607,-0.7531091570854187,0.6577374339103699,"(0.05, 0.0, 0.0, 0.0, 0.05, 0.0, 0.0, 0.0, 0.05)",0.09578026086091995,0.11600054800510406,-0.002128450432792306,"(0.1, 0.0, 0.0, 0.0, 0.1, 0.0, 0.0, 0.0, 0.1)",0.8331822156906128,0.8906430602073669,8.633491516113281,"(0.5, 0.0, 0.0, 0.0, 0.5, 0.0, 0.0, 0.0, 0.5)"
2024/07/05/10:38:20.569775,7046,1720190300,561839981,imu_link,-0.0015755891799926758,-0.02024475485086441,-0.752316951751709,0.6584883332252502,"(0.05, 0.0, 0.0, 0.0, 0.05, 0.0, 0.0, 0.0, 0.05)",0.07875265926122665,-0.09045914560556412,0.006385351065546274,"(0.1, 0.0, 0.0, 0.0, 0.1, 0.0, 0.0, 0.0, 0.1)",1.0678139925003052,1.4413094520568848,8.925583839416504,"(0.5, 0.0, 0.0, 0.0, 0.5, 0.0, 0.0, 0.0, 0.5)"
2024/07/05/10:38:20.671307,7047,1720190300,664839981,imu_link,-0.005390436388552189,-0.01706678792834282,-0.7527011632919312,0.6581190228462219,"(0.05, 0.0, 0.0, 0.0, 0.05, 0.0, 0.0, 0.0, 0.05)",-0.08300956338644028,0.1213216707110405,-0.037247881293296814,"(0.1, 0.0, 0.0, 0.0, 0.1, 0.0, 0.0, 0.0, 0.1)",-1.7142484188079834,-3.3423056602478027,10.395624160766602,"(0.5, 0.0, 0.0, 0.0, 0.5, 0.0, 0.0, 0.0, 0.5)"
2024/07/05/10:38:20.774770,7048,1720190300,767839981,imu_link,-0.0016385093331336975,-0.010409465059638023,-0.7529644966125488,0.6579768061637878,"(0.05, 0.0, 0.0, 0.0, 0.05, 0.0, 0.0, 0.0, 0.05)",-0.11174364387989044,0.18304672837257385,-0.03937632963061333,"(0.1, 0.0, 0.0, 0.0, 0.1, 0.0, 0.0, 0.0, 0.1)",-1.0965443849563599,3.4811692237854004,10.563218116760254,"(0.5, 0.0, 0.0, 0.0, 0.5, 0.0, 0.0, 0.0, 0.5)"
2024/07/05/10:38:20.877266,7049,1720190300,870839981,imu_link,-0.011088303290307522,-0.016757797449827194,-0.7519912123680115,0.658866822719574,"(0.05, 0.0, 0.0, 0.0, 0.05, 0.0, 0.0, 0.0, 0.05)",-0.001064225216396153,0.10642251372337341,0.04469745606184006,"(0.1, 0.0, 0.0, 0.0, 0.1, 0.0, 0.0, 0.0, 0.1)",0.8954314589500427,0.507570743560791,9.99339771270752,"(0.5, 0.0, 0.0, 0.0, 0.5, 0.0, 0.0, 0.0, 0.5)"
2024/07/05/10:38:20.980269,7050,1720190300,973839981,imu_link,-0.007345682941377163,-0.013422255404293537,-0.7515373229980469,0.6595131158828735,"(0.05, 0.0, 0.0, 0.0, 0.05, 0.0, 0.0, 0.0, 0.05)",-0.207523912191391,0.09045914560556412,0.010642251931130886,"(0.1, 0.0, 0.0, 0.0, 0.1, 0.0, 0.0, 0.0, 0.1)",1.944091796875,0.8810662031173706,9.131484985351562,"(0.5, 0.0, 0.0, 0.0, 0.5, 0.0, 0.0, 0.0, 0.5)"
2024/07/05/10:38:21.064318,7051,1720190301,56839981,imu_link,0.0007566018030047417,-0.008462036028504372,-0.7513104677200317,0.6598942279815674,"(0.05, 0.0, 0.0, 0.0, 0.05, 0.0, 0.0, 0.0, 0.05)",0.08513801544904709,-0.04150478169322014,0.03831210732460022,"(0.1, 0.0, 0.0, 0.0, 0.1, 0.0, 0.0, 0.0, 0.1)",-2.293645143508911,0.11971008777618408,10.031704902648926,"(0.5, 0.0, 0.0, 0.0, 0.5, 0.0, 0.0, 0.0, 0.5)"
2024/07/05/10:38:21.168204,7052,1720190301,159839981,imu_link,0.0026839356869459152,-0.013591513969004154,-0.7511633634567261,0.6599709391593933,"(0.05, 0.0, 0.0, 0.0, 0.05, 0.0, 0.0, 0.0, 0.05)",0.09471604228019714,-0.023412954062223434,0.034055206924676895,"(0.1, 0.0, 0.0, 0.0, 0.1, 0.0, 0.0, 0.0, 0.1)",-4.338293552398682,-1.0534487962722778,9.600749015808105,"(0.5, 0.0, 0.0, 0.0, 0.5, 0.0, 0.0, 0.0, 0.5)"
2024/07/05/10:38:21.269222,7053,1720190301,262839981,imu_link,0.001517144963145256,-0.013675643131136894,-0.7511610984802246,0.6599754691123962,"(0.05, 0.0, 0.0, 0.0, 0.05, 0.0, 0.0, 0.0, 0.05)",0.04682590812444687,0.13089969754219055,-0.01915605366230011,"(0.1, 0.0, 0.0, 0.0, 0.1, 0.0, 0.0, 0.0, 0.1)",1.5897499322891235,-0.08619125932455063,10.6925048828125,"(0.5, 0.0, 0.0, 0.0, 0.5, 0.0, 0.0, 0.0, 0.5)"
2024/07/05/10:38:21.372847,7054,1720190301,365839981,imu_link,-1.159030944108963e-05,-0.017374850809574127,-0.7505048513412476,0.6606364846229553,"(0.05, 0.0, 0.0, 0.0, 0.05, 0.0, 0.0, 0.0, 0.05)",0.07023885846138,-0.03299098089337349,0.015963377431035042,"(0.1, 0.0, 0.0, 0.0, 0.1, 0.0, 0.0, 0.0, 0.1)",-0.22505496442317963,-0.35434186458587646,11.425130844116211,"(0.5, 0.0, 0.0, 0.0, 0.5, 0.0, 0.0, 0.0, 0.5)"
2024/07/05/10:38:21.476637,7055,1720190301,468839981,imu_link,-0.005831428803503513,-0.01934560388326645,-0.7499343752861023,0.6612036228179932,"(0.05, 0.0, 0.0, 0.0, 0.05, 0.0, 0.0, 0.0, 0.05)",-0.001064225216396153,-0.26712051033973694,0.009578026831150055,"(0.1, 0.0, 0.0, 0.0, 0.1, 0.0, 0.0, 0.0, 0.1)",2.169146776199341,1.091755986213684,10.649409294128418,"(0.5, 0.0, 0.0, 0.0, 0.5, 0.0, 0.0, 0.0, 0.5)"
2024/07/05/10:38:21.580071,7056,1720190301,571839981,imu_link,-0.006608535535633564,-0.02242356911301613,-0.7501046061515808,0.6609058976173401,"(0.05, 0.0, 0.0, 0.0, 0.05, 0.0, 0.0, 0.0, 0.05)",-0.03937632963061333,-0.05746815726161003,-0.023412954062223434,"(0.1, 0.0, 0.0, 0.0, 0.1, 0.0, 0.0, 0.0, 0.1)",-1.015141487121582,-1.3838485479354858,9.342175483703613,"(0.5, 0.0, 0.0, 0.0, 0.5, 0.0, 0.0, 0.0, 0.5)"
2024/07/05/10:38:21.689039,7057,1720190301,674839981,imu_link,-0.014824813231825829,-0.029239311814308167,-0.7501280903816223,0.6604794859886169,"(0.05, 0.0, 0.0, 0.0, 0.05, 0.0, 0.0, 0.0, 0.05)",0.021284503862261772,0.09471604228019714,-0.06704618781805038,"(0.1, 0.0, 0.0, 0.0, 0.1, 0.0, 0.0, 0.0, 0.1)",-1.886630892753601,1.3742717504501343,9.255983352661133,"(0.5, 0.0, 0.0, 0.0, 0.5, 0.0, 0.0, 0.0, 0.5)"
2024/07/05/10:38:21.765445,7058,1720190301,757839981,imu_link,-0.018081899732351303,-0.02830381505191326,-0.7507559657096863,0.6597253084182739,"(0.05, 0.0, 0.0, 0.0, 0.05, 0.0, 0.0, 0.0, 0.05)",0.047890130430459976,-0.025541404262185097,-0.008513801731169224,"(0.1, 0.0, 0.0, 0.0, 0.1, 0.0, 0.0, 0.0, 0.1)",-0.6033388376235962,-1.8722656965255737,13.168108940124512,"(0.5, 0.0, 0.0, 0.0, 0.5, 0.0, 0.0, 0.0, 0.5)"
2024/07/05/10:38:21.868482,7059,1720190301,860839981,imu_link,-0.01386949047446251,-0.024043627083301544,-0.7508521676063538,0.6598867774009705,"(0.05, 0.0, 0.0, 0.0, 0.05, 0.0, 0.0, 0.0, 0.05)",0.06491773575544357,0.06385350972414017,0.03937632963061333,"(0.1, 0.0, 0.0, 0.0, 0.1, 0.0, 0.0, 0.0, 0.1)",-0.5027823448181152,1.091755986213684,12.023680686950684,"(0.5, 0.0, 0.0, 0.0, 0.5, 0.0, 0.0, 0.0, 0.5)"
2024/07/05/10:38:21.971100,7060,1720190301,963839981,imu_link,-0.00883318018168211,-0.018091745674610138,-0.7515108585357666,0.6594134569168091,"(0.05, 0.0, 0.0, 0.0, 0.05, 0.0, 0.0, 0.0, 0.05)",0.14686307311058044,0.030862528830766678,0.11174364387989044,"(0.1, 0.0, 0.0, 0.0, 0.1, 0.0, 0.0, 0.0, 0.1)",1.843535304069519,-1.2306196689605713,11.8225679397583,"(0.5, 0.0, 0.0, 0.0, 0.5, 0.0, 0.0, 0.0, 0.5)"
2024/07/05/10:38:22.079383,7061,1720190302,66839981,imu_link,-0.0073116132989525795,-0.01867581158876419,-0.7512167096138,0.6597508788108826,"(0.05, 0.0, 0.0, 0.0, 0.05, 0.0, 0.0, 0.0, 0.05)",-0.1042940616607666,-0.07236731052398682,-0.010642251931130886,"(0.1, 0.0, 0.0, 0.0, 0.1, 0.0, 0.0, 0.0, 0.1)",0.7230489253997803,-2.5905263423919678,10.524910926818848,"(0.5, 0.0, 0.0, 0.0, 0.5, 0.0, 0.0, 0.0, 0.5)"
2024/07/05/10:38:22.181411,7062,1720190302,169839981,imu_link,-0.004202277399599552,-0.01950613409280777,-0.7517876625061035,0.659103274345398,"(0.05, 0.0, 0.0, 0.0, 0.05, 0.0, 0.0, 0.0, 0.05)",-0.09790871292352676,0.07981688529253006,-0.04044055566191673,"(0.1, 0.0, 0.0, 0.0, 0.1, 0.0, 0.0, 0.0, 0.1)",1.3982137441635132,-0.2537853717803955,7.565677165985107,"(0.5, 0.0, 0.0, 0.0, 0.5, 0.0, 0.0, 0.0, 0.5)"
2024/07/05/10:38:22.285139,7063,1720190302,272839981,imu_link,-0.0041442131623625755,-0.02110753208398819,-0.7513083219528198,0.6596007347106934,"(0.05, 0.0, 0.0, 0.0, 0.05, 0.0, 0.0, 0.0, 0.05)",0.051082808524370193,-0.07130308449268341,0.009578026831150055,"(0.1, 0.0, 0.0, 0.0, 0.1, 0.0, 0.0, 0.0, 0.1)",4.1611223220825195,-0.6560112833976746,8.571242332458496,"(0.5, 0.0, 0.0, 0.0, 0.5, 0.0, 0.0, 0.0, 0.5)"
2024/07/05/10:38:22.364784,7064,1720190302,355839981,imu_link,-0.0016995742917060852,-0.021714478731155396,-0.7514464855194092,0.6594343781471252,"(0.05, 0.0, 0.0, 0.0, 0.05, 0.0, 0.0, 0.0, 0.05)",-0.11493631452322006,-0.03511942923069,0.017027603462338448,"(0.1, 0.0, 0.0, 0.0, 0.1, 0.0, 0.0, 0.0, 0.1)",-3.404554843902588,0.14365209639072418,9.567230224609375,"(0.5, 0.0, 0.0, 0.0, 0.5, 0.0, 0.0, 0.0, 0.5)"
2024/07/05/10:38:22.469508,7065,1720190302,459356271,imu_link,0.003036727197468281,-0.020661184564232826,-0.751189649105072,0.659756064414978,"(0.05, 0.0, 0.0, 0.0, 0.05, 0.0, 0.0, 0.0, 0.05)",-0.08939491212368011,-0.05001858249306679,0.051082808524370193,"(0.1, 0.0, 0.0, 0.0, 0.1, 0.0, 0.0, 0.0, 0.1)",-0.3256114423274994,3.936067581176758,8.523358345031738,"(0.5, 0.0, 0.0, 0.0, 0.5, 0.0, 0.0, 0.0, 0.5)"
2024/07/05/10:38:22.582823,7066,1720190302,562356271,imu_link,0.003816964104771614,-0.018001221120357513,-0.7508859634399414,0.6601755023002625,"(0.05, 0.0, 0.0, 0.0, 0.05, 0.0, 0.0, 0.0, 0.05)",0.0,0.056403931230306625,0.042569007724523544,"(0.1, 0.0, 0.0, 0.0, 0.1, 0.0, 0.0, 0.0, 0.1)",0.6512228846549988,3.3039982318878174,8.844181060791016,"(0.5, 0.0, 0.0, 0.0, 0.5, 0.0, 0.0, 0.0, 0.5)"
2024/07/05/10:38:22.683811,7067,1720190302,665356271,imu_link,0.003259865567088127,-0.014600193127989769,-0.7501345276832581,0.6611160039901733,"(0.05, 0.0, 0.0, 0.0, 0.05, 0.0, 0.0, 0.0, 0.05)",-0.10748674720525742,-0.008513801731169224,-0.02979830466210842,"(0.1, 0.0, 0.0, 0.0, 0.1, 0.0, 0.0, 0.0, 0.1)",2.1116859912872314,-2.3032219409942627,10.376470565795898,"(0.5, 0.0, 0.0, 0.0, 0.5, 0.0, 0.0, 0.0, 0.5)"
2024/07/05/10:38:22.789253,7068,1720190302,768356271,imu_link,-0.00024279672652482986,-0.01690308004617691,-0.7496292591094971,0.6616420149803162,"(0.05, 0.0, 0.0, 0.0, 0.05, 0.0, 0.0, 0.0, 0.05)",0.030862528830766678,0.03831210732460022,0.009578026831150055,"(0.1, 0.0, 0.0, 0.0, 0.1, 0.0, 0.0, 0.0, 0.1)",2.2649147510528564,0.7469909191131592,11.39161205291748,"(0.5, 0.0, 0.0, 0.0, 0.5, 0.0, 0.0, 0.0, 0.5)"
2024/07/05/10:38:22.880291,7069,1720190302,871356271,imu_link,-0.0029957881197333336,-0.01943129673600197,-0.7491732835769653,0.6620821952819824,"(0.05, 0.0, 0.0, 0.0, 0.05, 0.0, 0.0, 0.0, 0.05)",0.01489915233105421,-0.07768843322992325,0.004256900865584612,"(0.1, 0.0, 0.0, 0.0, 0.1, 0.0, 0.0, 0.0, 0.1)",2.097320795059204,2.451662540435791,8.968679428100586,"(0.5, 0.0, 0.0, 0.0, 0.5, 0.0, 0.0, 0.0, 0.5)"
2024/07/05/10:38:22.983810,7070,1720190302,974356271,imu_link,-0.0036548636853694916,-0.020629290491342545,-0.7497795820236206,0.6613559722900391,"(0.05, 0.0, 0.0, 0.0, 0.05, 0.0, 0.0, 0.0, 0.05)",-0.06385350972414017,-0.018091827630996704,-0.02234872803092003,"(0.1, 0.0, 0.0, 0.0, 0.1, 0.0, 0.0, 0.0, 0.1)",2.5282769203186035,1.742978811264038,10.453084945678711,"(0.5, 0.0, 0.0, 0.0, 0.5, 0.0, 0.0, 0.0, 0.5)"
2024/07/05/10:38:23.067549,7071,1720190303,57356271,imu_link,-0.004260038956999779,-0.022880230098962784,-0.749807596206665,0.6612464785575867,"(0.05, 0.0, 0.0, 0.0, 0.05, 0.0, 0.0, 0.0, 0.05)",-0.05533970892429352,-0.007449576165527105,-0.031926754862070084,"(0.1, 0.0, 0.0, 0.0, 0.1, 0.0, 0.0, 0.0, 0.1)",-2.3798365592956543,-0.24899697303771973,8.59997272491455,"(0.5, 0.0, 0.0, 0.0, 0.5, 0.0, 0.0, 0.0, 0.5)"
2024/07/05/10:38:23.172999,7072,1720190303,160356271,imu_link,-0.002055807039141655,-0.020225003361701965,-0.7499173283576965,0.6612191200256348,"(0.05, 0.0, 0.0, 0.0, 0.05, 0.0, 0.0, 0.0, 0.05)",-0.005321125965565443,-0.08833068609237671,0.025541404262185097,"(0.1, 0.0, 0.0, 0.0, 0.1, 0.0, 0.0, 0.0, 0.1)",0.12928688526153564,2.078166961669922,11.57357120513916,"(0.5, 0.0, 0.0, 0.0, 0.5, 0.0, 0.0, 0.0, 0.5)"
2024/07/05/10:38:23.269426,7073,1720190303,263356271,imu_link,0.0018844464793801308,-0.020574718713760376,-0.7493839263916016,0.6618133187294006,"(0.05, 0.0, 0.0, 0.0, 0.05, 0.0, 0.0, 0.0, 0.05)",0.10748674720525742,0.09045914560556412,0.042569007724523544,"(0.1, 0.0, 0.0, 0.0, 0.1, 0.0, 0.0, 0.0, 0.1)",0.181959331035614,-4.266467571258545,10.879252433776855,"(0.5, 0.0, 0.0, 0.0, 0.5, 0.0, 0.0, 0.0, 0.5)"
